File: data/ftir/measurement_kinds/interferrogram.csv
TITLE,test
DATA TYPE,INFRARED INTERFEROGRAM
ORIGIN,JASCO
OWNER,test
DATE,26/02/12
TIME,12:27:08
SPECTROMETER/DATA SYSTEM,
LOCALE,1041
RESOLUTION,
DELTAX,1
XUNITS,Position [AU]
YUNITS,Int.
FIRSTX,-4095
LASTX, 4096
NPOINTS,    8192
FIRSTY,     0.00000
MAXY,     8.65631
MINY,    -3.27958
XYDATA
-4095,0
-4089,0
-4083,0
-4077,0
-4071,0
-4065,0
-4059,0
-4053,0
-4047,0
-4041,0
-4035,0
-4029,0
-4023,0
-4017,0
-4011,0
-4005,0
-3999,0
-3993,0
-3987,0
-3981,0
-3975,0
-3969,0
-3963,0
-3957,0
-3951,0
-3945,0
-3939,0
-3933,0
-3927,0
-3921,0
-3915,0
-3909,0
-3903,0
-3897,0
-3891,0
-3885,0
-3879,0
-3873,0
-3867,0
-3861,0
-3855,0
-3849,0
-3843,0
-3837,0
-3831,0
-3825,0
-3819,0
-3813,0
-3807,0
-3801,0
-3795,0
-3789,0
-3783,0
-3777,0
-3771,0
-3765,0
-3759,0
-3753,0
-3747,0
-3741,0
-3735,0
-3729,0
-3723,0
-3717,0
-3711,0
-3705,0
-3699,0
-3693,0
-3687,0
-3681,0
-3675,0
-3669,0
-3663,0
-3657,0
-3651,0
-3645,0
-3639,0
-3633,0
-3627,0
-3621,0
-3615,0
-3609,0
-3603,0
-3597,0
-3591,0
-3585,0
-3579,0
-3573,0
-3567,0
-3561,0
-3555,0
-3549,0
-3543,0
-3537,0
-3531,0
-3525,0
-3519,0
-3513,0
-3507,0
-3501,0
-3495,0
-3489,0
-3483,0
-3477,0
-3471,0
-3465,0
-3459,0
-3453,0
-3447,0
-3441,0
-3435,0
-3429,0
-3423,0
-3417,0
-3411,0
-3405,0
-3399,0
-3393,0
-3387,0
-3381,0
-3375,0
-3369,0
-3363,0
-3357,0
-3351,0
-3345,0
-3339,0
-3333,0
-3327,0.000815723
-3321,-0.0213997
-3315,0.00790104
-3309,0.017145
-3303,-0.0248633
-3297,-0.000950237
-3291,0.0242451
-3285,-0.0142147
-3279,-0.00749444
-3273,0.0209733
-3267,-0.014483
-3261,-0.00808075
-3255,0.0235264
-3249,-0.020777
-3243,-0.00477766
-3237,0.0338362
-3231,-0.0194327
-3225,-0.0219989
-3219,0.0392083
-3213,-0.00565114
-3207,-0.0373951
-3201,0.0302586
-3195,0.0178879
-3189,-0.0297316
-3183,0.000568644
-3177,0.0267575
-3171,-0.0122799
-3165,-0.0182948
-3159,0.0138878
-3153,0.0108223
-3147,-0.0102674
-3141,-0.00537488
-3135,0.0156766
-3129,-0.000317248
-3123,-0.0120061
-3117,-0.0016375
-3111,0.00996383
-3105,-0.00013384
-3099,-0.0103944
-3093,0.00574769
-3087,0.0118709
-3081,-0.00786063
-3075,-0.0164242
-3069,0.0170066
-3063,0.00626668
-3057,-0.0222909
-3051,0.00581248
-3045,0.0260449
-3039,-0.0177143
-3033,-0.0198473
-3027,0.0323248
-3021,-0.00635359
-3015,-0.0293621
-3009,0.0242874
-3003,0.013625
-2997,-0.0300114
-2991,0.0129345
-2985,0.0162507
-2979,-0.0280367
-2973,0.0107839
-2967,0.0107468
-2961,-0.0168978
-2955,0.00919938
-2949,0.00992433
-2943,-0.0172629
-2937,0.00595691
-2931,0.00448901
-2925,-0.0139823
-2919,0.0122444
-2913,-0.00401031
-2907,-0.0020616
-2901,0.0147491
-2895,-0.0100837
-2889,-0.0105837
-2883,0.0188718
-2877,-0.00600459
-2871,-0.0201961
-2865,0.0213863
-2859,0.00596143
-2853,-0.0167469
-2847,0.000818498
-2841,0.0147553
-2835,-0.00988323
-2829,-0.0100925
-2823,0.0114734
-2817,0.00118594
-2811,-0.00181005
-2805,-0.000962031
-2799,0.000646955
-2793,-0.000164067
-2787,0.00373383
-2781,-0.0120289
-2775,0.000757894
-2769,0.0170384
-2763,-0.0122672
-2757,-0.00637594
-2751,0.0136104
-2745,0.000707539
-2739,-0.0168439
-2733,0.00914921
-2727,0.00703636
-2721,-0.00851225
-2715,0.00361849
-2709,0.00389397
-2703,-0.0046693
-2697,-0.00311817
-2691,0.00776572
-2685,-0.011286
-2679,0.000486687
-2673,0.0149998
-2667,-0.00619006
-2661,-0.00992274
-2655,0.0134724
-2649,0.00675851
-2643,-0.0227666
-2637,0.00546492
-2631,0.0186485
-2625,-0.011945
-2619,-0.0117523
-2613,0.0212516
-2607,-0.00299874
-2601,-0.0154533
-2595,0.0114289
-2589,-0.00267909
-2583,0.00569013
-2577,0.000822813
-2571,-0.0108297
-2565,0.0153386
-2559,0.00446331
-2553,-0.0283449
-2547,0.013498
-2541,0.0185783
-2535,-0.0275796
-2529,0.00634647
-2523,0.0200497
-2517,-0.0107193
-2511,-0.0129727
-2505,0.0127828
-2499,0.00395261
-2493,-0.0161297
-2487,0.00490048
-2481,0.0132397
-2475,-0.00779033
-2469,-0.0102294
-2463,0.0138302
-2457,-0.00471757
-2451,-0.0102124
-2445,0.00742552
-2439,0.00344283
-2433,-0.00110531
-2427,-0.00204517
-2421,0.00192297
-2415,-0.000668185
-2409,-0.0014168
-2403,-0.00726345
-2397,0.00612082
-2391,0.00317999
-2385,-0.00588669
-2379,0.00533657
-2373,-0.00167186
-2367,-0.00184171
-2361,0.00134123
-2355,-0.00404731
-2349,-0.00291736
-2343,0.0139487
-2337,-0.00853869
-2331,-0.00834802
-2325,0.0178462
-2319,-0.00866629
-2313,-0.0117543
-2307,0.010665
-2301,0.00493129
-2295,-0.0100215
-2289,0.00494933
-2283,0.00304887
-2277,-0.000729334
-2271,-0.00378951
-2265,-0.00747698
-2259,0.0131632
-2253,-0.00228651
-2247,-0.0107732
-2241,0.0113262
-2235,0.0097168
-2229,-0.0197627
-2223,0.00293408
-2217,0.0145107
-2211,-0.0153145
-2205,0.000512132
-2199,0.00922658
-2193,-0.00214405
-2187,-0.00365299
-2181,0.00315738
-2175,-0.00565928
-2169,0.00535367
-2163,0.00128152
-2157,-0.009712
-2151,0.012481
-2145,0.0026617
-2139,-0.00959403
-2133,-0.0012861
-2127,0.011023
-2121,-0.00916597
-2115,-0.00456585
-2109,0.012399
-2103,-0.00120971
-2097,-0.00309501
-2091,0.00264608
-2085,0.00166559
-2079,-0.00878831
-2073,0.00757765
-2067,-0.005991
-2061,-0.00349644
-2055,0.0152705
-2049,-0.00927307
-2043,-0.0100628
-2037,0.0184667
-2031,-0.00331694
-2025,-0.0288522
-2019,0.031544
-2013,0.00206567
-2007,-0.0337331
-2001,0.0301586
-1995,0.0115241
-1989,-0.0436278
-1983,0.0214642
-1977,0.03227
-1971,-0.0561064
-1965,0.0179558
-1959,0.0467894
-1953,-0.047126
-1947,-0.0153378
-1941,0.0564182
-1935,-0.0216083
-1929,-0.0467733
-1923,0.0509549
-1917,0.0107316
-1911,-0.0411665
-1905,0.00849899
-1899,0.0330255
-1893,-0.0240349
-1887,-0.0197558
-1881,0.0210466
-1875,0.0042719
-1869,-0.00781444
-1863,-0.0142345
-1857,0.0174858
-1851,0.0116257
-1845,-0.0260183
-1839,-0.0123936
-1833,0.039498
-1827,-0.00760687
-1821,-0.0442345
-1815,0.0417998
-1809,0.02016
-1803,-0.05256
-1797,0.00286624
-1791,0.0525441
-1785,-0.0406508
-1779,-0.0228734
-1773,0.0560867
-1767,-0.011476
-1761,-0.0357106
-1755,0.0292724
-1749,0.0126766
-1743,-0.0354011
-1737,0.0143002
-1731,0.0105564
-1725,-0.00647548
-1719,0.00223701
-1713,-0.00556236
-1707,0.0100708
-1701,0.0013321
-1695,-0.0166632
-1689,0.00682258
-1683,0.0205332
-1677,-0.0237609
-1671,0.00646966
-1665,0.0143025
-1659,-0.0198768
-1653,0.0096329
-1647,0.000838049
-1641,-0.0163935
-1635,0.0199493
-1629,0.00925224
-1623,-0.0351556
-1617,0.0248087
-1611,0.0183914
-1605,-0.0388819
-1599,0.0048291
-1593,0.0289125
-1587,-0.0130584
-1581,-0.0208357
-1575,0.0233941
-1569,0.0070297
-1563,-0.0171285
-1557,-0.00561671
-1551,0.0184887
-1545,0.00279295
-1539,-0.01714
-1533,0.0106673
-1527,0.0108052
-1521,-0.00496136
-1515,-0.0138688
-1509,0.00971375
-1503,0.00858514
-1497,-0.0131065
-1491,-0.00270865
-1485,0.0184308
-1479,-0.000275825
-1473,-0.0207482
-1467,0.0190316
-1461,0.00400067
-1455,-0.0191872
-1449,0.00829499
-1443,0.0138858
-1437,-0.0149306
-1431,-0.00166164
-1425,0.0161522
-1419,-0.0165047
-1413,-0.00151587
-1407,0.0111952
-1401,-0.00261698
-1395,-0.00621413
-1389,0.00893527
-1383,0.00426919
-1377,-0.0122505
-1371,0.00311193
-1365,0.00470916
-1359,-0.00454907
-1353,-0.00880827
-1347,0.0182484
-1341,-0.00584248
-1335,-0.0165501
-1329,0.0245551
-1323,-0.00997204
-1317,-0.0171802
-1311,0.0218777
-1305,0.000405113
-1299,-0.018498
-1293,0.0217817
-1287,-0.00549812
-1281,-0.0109709
-1275,0.0148517
-1269,-0.0169742
-1263,0.00360753
-1257,0.0098584
-1251,-0.00750868
-1245,-0.00120783
-1239,0.0105803
-1233,-0.00535232
-1227,-0.00450409
-1221,0.00294486
-1215,-0.00235679
-1209,0.00649551
-1203,-0.00755071
-1197,0.00466419
-1191,-0.00327989
-1185,0.000391548
-1179,0.000655604
-1173,-0.00680576
-1167,0.00283363
-1161,0.0072793
-1155,0.00164944
-1149,-0.0163327
-1143,0.0149991
-1137,0.00386371
-1131,-0.0133921
-1125,-0.00663711
-1119,0.021154
-1113,-0.00274042
-1107,-0.0219697
-1101,0.0225963
-1095,0.00153324
-1089,-0.0137125
-1083,-0.00128839
-1077,0.0184123
-1071,-0.0164944
-1065,0.00422937
-1059,0.00838016
-1053,-0.0117106
-1047,0.0102388
-1041,-0.00739902
-1035,-0.00293209
-1029,0.00125598
-1023,0.0108408
-1017,-0.0217617
-1011,0.0157675
-1005,0.0073647
-999.0000,-0.018122
-993.0000,0.00675614
-987.0000,0.000878697
-981.0000,0.00154491
-975.0000,-0.0117555
-969.0000,0.0144515
-963.0000,-0.0121534
-957.0000,0.0106642
-951.0000,-0.00659796
-945.0000,-0.00516324
-939.0000,0.0105547
-933.0000,-0.00454582
-927.0000,0.00157609
-921.0000,-0.00885317
-915.0000,0.0210131
-909.0000,-0.0175689
-903.0000,0.00474558
-897.0000,-0.00484055
-891.0000,0.00911015
-885.0000,-0.00293021
-879.0000,-0.01206
-873.0000,0.0197847
-867.0000,-0.00794406
-861.0000,-0.000882667
-855.0000,-0.00707481
-849.0000,0.025252
-843.0000,-0.0278537
-837.0000,0.00677846
-831.0000,0.0131833
-825.0000,-0.0107969
-819.0000,-0.000708019
-813.0000,0.000250682
-807.0000,0.0161964
-801.0000,-0.0265148
-795.0000,0.0150903
-789.0000,-0.00401489
-783.0000,0.0101381
-777.0000,-0.0142681
-771.0000,0.00685407
-765.0000,0.00643865
-759.0000,-0.01164
-753.0000,0.0140814
-747.0000,-0.0225571
-741.0000,0.0189122
-735.0000,-0.00752826
-729.0000,0.0023038
-723.0000,-0.00978722
-717.0000,0.0242401
-711.0000,-0.016303
-705.0000,-0.0162105
-699.0000,0.0350446
-693.0000,-0.0249277
-687.0000,0.00083557
-681.0000,0.00661629
-675.0000,0.0147322
-669.0000,-0.0380241
-663.0000,0.0252122
-657.0000,0.00579167
-651.0000,-0.0253821
-645.0000,0.0111053
-639.0000,0.00513775
-633.0000,0.0106074
-627.0000,-0.0264404
-621.0000,0.021191
-615.0000,-0.01239
-609.0000,0.00383289
-603.0000,-0.00962998
-597.0000,0.00837921
-591.0000,0.00763211
-585.0000,-0.0195321
-579.0000,0.0133973
-573.0000,-0.00133763
-567.0000,0.0077924
-561.0000,-0.0208671
-555.0000,0.0221668
-549.0000,-0.0108565
-543.0000,-0.00988601
-537.0000,0.0133302
-531.0000,0.0106423
-525.0000,-0.0143927
-519.0000,-0.0137504
-513.0000,0.0253185
-507.0000,-0.0145784
-501.0000,0.00174731
-495.0000,0.00701379
-489.0000,0.00991997
-483.0000,-0.0213939
-477.0000,0.012419
-471.0000,0.00127235
-465.0000,-0.0142387
-459.0000,0.00593654
-453.0000,0.00919097
-447.0000,-0.00967545
-441.0000,0.00215088
-435.0000,0.0295043
-429.0000,-0.0382528
-423.0000,0.00555483
-417.0000,0.00807063
-411.0000,0.00839247
-405.0000,-0.022226
-399.0000,0.0279657
-393.0000,-0.00264496
-387.0000,-0.0240906
-381.0000,0.0189345
-375.0000,-0.00724215
-369.0000,0.0138187
-363.0000,-0.0342731
-357.0000,0.0465031
-351.0000,-0.0303067
-345.0000,0.00789933
-339.0000,0.00901637
-333.0000,0.00801988
-327.0000,-0.0194623
-321.0000,-0.0244954
-315.0000,0.0551644
-309.0000,-0.0535953
-303.0000,0.0443941
-297.0000,-0.0210119
-291.0000,0.0199334
-285.0000,-0.0470469
-279.0000,0.0407306
-273.0000,0.0212953
-267.0000,-0.0617573
-261.0000,0.0410599
-255.0000,-0.0314567
-249.0000,0.0444851
-243.0000,-0.06213
-237.0000,0.0829572
-231.0000,-0.0699308
-225.0000,-0.0197302
-219.0000,0.0524573
-213.0000,0.0130922
-207.0000,0.00631297
-201.0000,-0.068948
-195.0000,0.109965
-189.0000,-0.120721
-183.0000,0.0364423
-177.0000,-0.00338147
-171.0000,0.0315663
-165.0000,-0.0431509
-159.0000,0.0292742
-153.0000,0.0780193
-147.0000,-0.147107
-141.0000,0.0827355
-135.0000,-0.0378911
-129.0000,0.0791669
-123.0000,-0.0728592
-117.0000,0.0298189
-111.0000,-0.0759361
-105.0000,0.00694633
-99.0000,0.179218
-93.0000,-0.077028
-87.0000,-0.0284188
-81.0000,-0.168318
-75.0000,0.155503
-69.0000,0.0200807
-63.0000,-0.0264244
-57.0000,-0.133216
-51.0000,0.101003
-45.0000,0.19657
-39.0000,-0.151796
-33.0000,0.13136
-27.0000,0.124115
-21.0000,0.0284754
-15.0000,-0.0384289
-9.0000,-2.81925
-3.0000,1.67513
3.0000,1.67701
9.0000,-2.84159
15.0000,-0.0103165
21.0000,-0.00927112
27.0000,0.140778
33.0000,0.133393
39.0000,-0.172538
45.0000,0.212714
51.0000,0.099564
57.0000,-0.125812
63.0000,-0.0141809
69.0000,0.0106546
75.0000,0.150959
81.0000,-0.182951
87.0000,-0.0224828
93.0000,-0.0692542
99.0000,0.187415
105.0000,0.00337439
111.0000,-0.0855449
117.0000,0.0265483
123.0000,-0.0752343
129.0000,0.0864476
135.0000,-0.0339466
141.0000,0.084994
147.0000,-0.147569
153.0000,0.075945
159.0000,0.0291673
165.0000,-0.0431782
171.0000,0.0325204
177.0000,-0.0080962
183.0000,0.0349835
189.0000,-0.121547
195.0000,0.111099
201.0000,-0.0644237
207.0000,0.00668605
213.0000,0.0127567
219.0000,0.0506571
225.0000,-0.018758
231.0000,-0.0702201
237.0000,0.0837172
243.0000,-0.0627831
249.0000,0.0432349
255.0000,-0.0314333
261.0000,0.0405077
267.0000,-0.0603787
273.0000,0.021123
279.0000,0.0410621
285.0000,-0.0483125
291.0000,0.0202614
297.0000,-0.0202681
303.0000,0.0445354
309.0000,-0.0534289
315.0000,0.0543777
321.0000,-0.0234756
327.0000,-0.0198967
333.0000,0.00829962
339.0000,0.00782143
345.0000,0.00766688
351.0000,-0.0296147
357.0000,0.0468198
363.0000,-0.0339731
369.0000,0.013521
375.0000,-0.0064627
381.0000,0.0176778
387.0000,-0.0249723
393.0000,-0.00269006
399.0000,0.0290107
405.0000,-0.0217398
411.0000,0.00846827
417.0000,0.00763814
423.0000,0.00513959
429.0000,-0.0372968
435.0000,0.0290252
441.0000,0.00127329
447.0000,-0.0095618
453.0000,0.00985211
459.0000,0.00556235
465.0000,-0.0145276
471.0000,0.0015798
477.0000,0.0124528
483.0000,-0.0213351
489.0000,0.0101277
495.0000,0.00673608
501.0000,0.00140261
507.0000,-0.0139384
513.0000,0.0251151
519.0000,-0.0143286
525.0000,-0.0142299
531.0000,0.010804
537.0000,0.0126892
543.0000,-0.00954617
549.0000,-0.0104352
555.0000,0.0223167
561.0000,-0.0210041
567.0000,0.00737353
573.0000,-0.00121395
579.0000,0.0135588
585.0000,-0.0189519
591.0000,0.00719482
597.0000,0.00815945
603.0000,-0.00984848
609.0000,0.00381171
615.0000,-0.0127722
621.0000,0.0216286
627.0000,-0.0260056
633.0000,0.0103394
639.0000,0.00493805
645.0000,0.0108559
651.0000,-0.0250199
657.0000,0.00571682
663.0000,0.0249677
669.0000,-0.0382722
675.0000,0.0150385
681.0000,0.00663959
687.0000,0.000585504
693.0000,-0.0246474
699.0000,0.03494
705.0000,-0.016068
711.0000,-0.0163673
717.0000,0.0243099
723.0000,-0.00986987
729.0000,0.00240597
735.0000,-0.00777232
741.0000,0.0187129
747.0000,-0.0220796
753.0000,0.0137966
759.0000,-0.0117485
765.0000,0.00635286
771.0000,0.00693999
777.0000,-0.0138647
783.0000,0.0101143
789.0000,-0.00447101
795.0000,0.0148721
801.0000,-0.025732
807.0000,0.0159773
813.0000,-0.000289924
819.0000,-0.000655213
825.0000,-0.0103434
831.0000,0.0129533
837.0000,0.00662474
843.0000,-0.0276788
849.0000,0.0253383
855.0000,-0.00716454
861.0000,-0.000833072
867.0000,-0.00792868
873.0000,0.0193661
879.0000,-0.0114981
885.0000,-0.00327368
891.0000,0.00876639
897.0000,-0.00460027
903.0000,0.00480352
909.0000,-0.0173818
915.0000,0.0208183
921.0000,-0.00856734
927.0000,0.00157468
933.0000,-0.00443458
939.0000,0.0103496
945.0000,-0.00528629
951.0000,-0.00659867
957.0000,0.0105051
963.0000,-0.0119872
969.0000,0.0140702
975.0000,-0.0115326
981.0000,0.00171366
987.0000,0.000686995
993.0000,0.00678584
999.0000,-0.0177335
1005,0.00734562
1011,0.0154563
1017,-0.0217787
1023,0.0111714
1029,0.00107878
1035,-0.00309697
1041,-0.00722728
1047,0.0101024
1053,-0.0115604
1059,0.00850597
1065,0.00388183
1071,-0.0164562
1077,0.0188443
1083,-0.00162714
1089,-0.0139488
1095,0.0017939
1101,0.0224738
1107,-0.0222883
1113,-0.00262516
1119,0.0210956
1125,-0.006823
1131,-0.0130524
1137,0.00384481
1143,0.0147331
1149,-0.016173
1155,0.00215732
1161,0.00698399
1167,0.00263905
1173,-0.00646564
1179,0.000643631
1185,0.000197014
1191,-0.00335759
1197,0.00482728
1203,-0.00740157
1209,0.00653355
1215,-0.00236534
1221,0.00304291
1227,-0.00438746
1233,-0.00518736
1239,0.0104654
1245,-0.0016699
1251,-0.00720321
1257,0.00989384
1263,0.00311289
1269,-0.0167999
1275,0.0152626
1281,-0.0112229
1287,-0.00523709
1293,0.0217619
1299,-0.0185194
1305,0.000992076
1311,0.0215317
1317,-0.0174493
1323,-0.00960761
1329,0.0243028
1335,-0.0170186
1341,-0.00554539
1347,0.0180887
1353,-0.00885862
1359,-0.00431682
1365,0.00472372
1371,0.00321219
1377,-0.0118404
1383,0.00418164
1389,0.00893707
1395,-0.00636292
1401,-0.00237747
1407,0.0110852
1413,-0.00191694
1419,-0.0165529
1425,0.0163679
1431,-0.00178003
1437,-0.014883
1443,0.0140912
1449,0.00816873
1455,-0.0188321
1461,0.00424583
1467,0.0187124
1473,-0.0205959
1479,-0.000218176
1485,0.0180457
1491,-0.00280043
1497,-0.0129923
1503,0.00831496
1509,0.00970141
1515,-0.0137021
1521,-0.00513532
1527,0.0113067
1533,0.010701
1539,-0.0173144
1545,0.00283028
1551,0.0187045
1557,-0.00572736
1563,-0.0173549
1569,0.00704186
1575,0.0231416
1581,-0.0207909
1587,-0.0130194
1593,0.0290833
1599,0.00446918
1605,-0.0385525
1611,0.0187115
1617,0.0242347
1623,-0.0347971
1629,0.00969608
1635,0.0192194
1641,-0.0163723
1647,0.00139756
1653,0.00901078
1659,-0.0197637
1665,0.0144386
1671,0.00615706
1677,-0.0235376
1683,0.0208094
1689,0.00657863
1695,-0.016539
1701,0.00155488
1707,0.00981928
1713,-0.00539392
1719,0.00206041
1725,-0.00668747
1731,0.01088
1737,0.0140623
1743,-0.0356796
1749,0.0132881
1755,0.0290921
1761,-0.0362629
1767,-0.0108289
1773,0.0559791
1779,-0.02327
1785,-0.0403231
1791,0.0526708
1797,0.00237763
1803,-0.0521551
1809,0.0202857
1815,0.041287
1821,-0.0437822
1827,-0.00745273
1833,0.0393405
1839,-0.0124272
1845,-0.0256207
1851,0.0114346
1857,0.0172496
1863,-0.0138268
1869,-0.00814271
1875,0.00453602
1881,0.0211873
1887,-0.0198
1893,-0.0239963
1899,0.0332701
1905,0.00830008
1911,-0.0410274
1917,0.0110565
1923,0.0505722
1929,-0.0467736
1935,-0.0211292
1941,0.0561313
1947,-0.0158651
1953,-0.0464288
1959,0.0469143
1965,0.0170127
1971,-0.055516
1977,0.0327331
1983,0.0207375
1989,-0.0435309
1995,0.0120992
2001,0.0295718
2007,-0.0335667
2013,0.00264558
2019,0.0308188
2025,-0.0286698
2031,-0.00277735
2037,0.0181204
2043,-0.0101352
2049,-0.00927307
2055,0.0152705
2061,-0.00349644
2067,-0.005991
2073,0.00757765
2079,-0.00878831
2085,0.00166559
2091,0.00264608
2097,-0.00309501
2103,-0.00120971
2109,0.012399
2115,-0.00456585
2121,-0.00916597
2127,0.011023
2133,-0.0012861
2139,-0.00959403
2145,0.0026617
2151,0.012481
2157,-0.009712
2163,0.00128152
2169,0.00535367
2175,-0.00565928
2181,0.00315738
2187,-0.00365299
2193,-0.00214405
2199,0.00922658
2205,0.000512132
2211,-0.0153145
2217,0.0145107
2223,0.00293408
2229,-0.0197627
2235,0.0097168
2241,0.0113262
2247,-0.0107732
2253,-0.00228651
2259,0.0131632
2265,-0.00747698
2271,-0.00378951
2277,-0.000729334
2283,0.00304887
2289,0.00494933
2295,-0.0100215
2301,0.00493129
2307,0.010665
2313,-0.0117543
2319,-0.00866629
2325,0.0178462
2331,-0.00834802
2337,-0.00853869
2343,0.0139487
2349,-0.00291736
2355,-0.00404731
2361,0.00134123
2367,-0.00184171
2373,-0.00167186
2379,0.00533657
2385,-0.00588669
2391,0.00317999
2397,0.00612082
2403,-0.00726345
2409,-0.0014168
2415,-0.000668185
2421,0.00192297
2427,-0.00204517
2433,-0.00110531
2439,0.00344283
2445,0.00742552
2451,-0.0102124
2457,-0.00471757
2463,0.0138302
2469,-0.0102294
2475,-0.00779033
2481,0.0132397
2487,0.00490048
2493,-0.0161297
2499,0.00395261
2505,0.0127828
2511,-0.0129727
2517,-0.0107193
2523,0.0200497
2529,0.00634647
2535,-0.0275796
2541,0.0185783
2547,0.013498
2553,-0.0283449
2559,0.00446331
2565,0.0153386
2571,-0.0108297
2577,0.000822813
2583,0.00569013
2589,-0.00267909
2595,0.0114289
2601,-0.0154533
2607,-0.00299874
2613,0.0212516
2619,-0.0117523
2625,-0.011945
2631,0.0186485
2637,0.00546492
2643,-0.0227666
2649,0.00675851
2655,0.0134724
2661,-0.00992274
2667,-0.00619006
2673,0.0149998
2679,0.000486687
2685,-0.011286
2691,0.00776572
2697,-0.00311817
2703,-0.0046693
2709,0.00389397
2715,0.00361849
2721,-0.00851225
2727,0.00703636
2733,0.00914921
2739,-0.0168439
2745,0.000707539
2751,0.0136104
2757,-0.00637594
2763,-0.0122672
2769,0.0170384
2775,0.000757894
2781,-0.0120289
2787,0.00373383
2793,-0.000164067
2799,0.000646955
2805,-0.000962031
2811,-0.00181005
2817,0.00118594
2823,0.0114734
2829,-0.0100925
2835,-0.00988323
2841,0.0147553
2847,0.000818498
2853,-0.0167469
2859,0.00596143
2865,0.0213863
2871,-0.0201961
2877,-0.00600459
2883,0.0188718
2889,-0.0105837
2895,-0.0100837
2901,0.0147491
2907,-0.0020616
2913,-0.00401031
2919,0.0122444
2925,-0.0139823
2931,0.00448901
2937,0.00595691
2943,-0.0172629
2949,0.00992433
2955,0.00919938
2961,-0.0168978
2967,0.0107468
2973,0.0107839
2979,-0.0280367
2985,0.0162507
2991,0.0129345
2997,-0.0300114
3003,0.013625
3009,0.0242874
3015,-0.0293621
3021,-0.00635359
3027,0.0323248
3033,-0.0198473
3039,-0.0177143
3045,0.0260449
3051,0.00581248
3057,-0.0222909
3063,0.00626668
3069,0.0170066
3075,-0.0164242
3081,-0.00786063
3087,0.0118709
3093,0.00574769
3099,-0.0103944
3105,-0.00013384
3111,0.00996383
3117,-0.0016375
3123,-0.0120061
3129,-0.000317248
3135,0.0156766
3141,-0.00537488
3147,-0.0102674
3153,0.0108223
3159,0.0138878
3165,-0.0182948
3171,-0.0122799
3177,0.0267575
3183,0.000568644
3189,-0.0297316
3195,0.0178879
3201,0.0302586
3207,-0.0373951
3213,-0.00565114
3219,0.0392083
3225,-0.0219989
3231,-0.0194327
3237,0.0338362
3243,-0.00477766
3249,-0.020777
3255,0.0235264
3261,-0.00808075
3267,-0.014483
3273,0.0209733
3279,-0.00749444
3285,-0.0142147
3291,0.0242451
3297,-0.000950237
3303,-0.0248633
3309,0.017145
3315,0.00790104
3321,-0.0213997
3327,0.000815723
3333,0
3339,0
3345,0
3351,0
3357,0
3363,0
3369,0
3375,0
3381,0
3387,0
3393,0
3399,0
3405,0
3411,0
3417,0
3423,0
3429,0
3435,0
3441,0
3447,0
3453,0
3459,0
3465,0
3471,0
3477,0
3483,0
3489,0
3495,0
3501,0
3507,0
3513,0
3519,0
3525,0
3531,0
3537,0
3543,0
3549,0
3555,0
3561,0
3567,0
3573,0
3579,0
3585,0
3591,0
3597,0
3603,0
3609,0
3615,0
3621,0
3627,0
3633,0
3639,0
3645,0
3651,0
3657,0
3663,0
3669,0
3675,0
3681,0
3687,0
3693,0
3699,0
3705,0
3711,0
3717,0
3723,0
3729,0
3735,0
3741,0
3747,0
3753,0
3759,0
3765,0
3771,0
3777,0
3783,0
3789,0
3795,0
3801,0
3807,0
3813,0
3819,0
3825,0
3831,0
3837,0
3843,0
3849,0
3855,0
3861,0
3867,0
3873,0
3879,0
3885,0
3891,0
3897,0
3903,0
3909,0
3915,0
3921,0
3927,0
3933,0
3939,0
3945,0
3951,0
3957,0
3963,0
3969,0
3975,0
3981,0
3987,0
3993,0
3999,0
4005,0
4011,0
4017,0
4023,0
4029,0
4035,0
4041,0
4047,0
4053,0
4059,0
4065,0
4071,0
4077,0
4083,0
4089,0
4095,0
4096,0

##### Extended Information
[Rg]
,test
Rg,test
,test
,test
,NAIST

[f[^]
,2026/02/12 12:27

f[^^Cv,uf[^
,Position [AU]
c,Int.
X^[g,-4095 AU
Gh,4096 AU
f[^u,1 AU
f[^,8192

[]
@,FT/IR-4600typeA
VA,E137161786

,2026/02/12 12:27

,W
o,TGS
Z,8
,8 cm-1
[tBO,On
A|_C[[V,Cosine
QC,Auto (1)
Ap[`[,Auto (7.1 mm)
XLXs[h,Auto (2 mm/sec)
tB^,Auto (30000 Hz)