File: data/raman/ZIF62_glass_2a.csv
TITLE,G1-1
DATA TYPE,RAMAN SPECTRUM
ORIGIN,JASCO
OWNER,
DATE,25/03/17
TIME,14:03:06
SPECTROMETER/DATA SYSTEM,
LOCALE,1041
XUNITS,1/CM
YUNITS,INTENSITY
FIRSTX,  545.3755
LASTX, 1597.63
NPOINTS,    1024
XYDATA
545.3755,309
546.5185,310
547.6613,308
548.8037,308
549.9459,313
551.0880,313
552.2297,323
553.3712,329
554.5125,326
555.6534,319
556.7943,312.5
557.9348,306
559.0750,312
560.2151,307
561.3549,306
562.4944,307
563.6337,312
564.7728,309
565.9117,310
567.0502,310
568.1886,310
569.3267,305
570.4645,310
571.6022,310
572.7395,312
573.8766,308
575.0135,310
576.1502,315
577.2866,308
578.4227,308
579.5587,309
580.6943,309
581.8298,302
582.9650,310
584.0999,307
585.2346,304
586.3691,310
587.5033,304
588.6373,308
589.7711,311
590.9045,306
592.0378,305
593.1708,303
594.3036,304
595.4362,303
596.5684,306
597.7005,309
598.8323,304
599.9639,302
601.0952,305
602.2263,304
603.3571,307
604.4877,307
605.6181,308
606.7482,304
607.8781,305
609.0078,306
610.1372,308
611.2664,305
612.3953,306
613.5239,307
614.6524,305
615.7806,308
616.9086,305
618.0363,302
619.1638,307
620.2910,304
621.4180,304
622.5448,299
623.6713,303
624.7976,302
625.9236,305
627.0494,305
628.1750,299
629.3004,303
630.4254,304
631.5503,305
632.6749,304
633.7993,304
634.9234,303
636.0473,305
637.1710,305
638.2944,303
639.4175,310
640.5405,310
641.6632,311
642.7856,311
643.9079,323
645.0298,321
646.1516,312
647.2731,311
648.3944,313
649.5154,313
650.6362,316
651.7568,313
652.8771,314
653.9971,314
655.1170,309
656.2366,308
657.3560,307
658.4751,310
659.5940,302
660.7126,308
661.8311,309
662.9492,308
664.0672,305
665.1849,313
666.3024,307
667.4196,309
668.5366,311
669.6533,307
670.7698,314
671.8861,307
673.0021,304
674.1180,307
675.2335,304
676.3489,302
677.4640,297
678.5789,296
679.6935,299
680.8079,299
681.9220,296
683.0359,294
684.1496,294
685.2631,301
686.3762,297
687.4892,296
688.6019,292
689.7144,290
690.8267,290
691.9387,290
693.0505,289
694.1620,286
695.2734,287
696.3845,290
697.4953,289
698.6060,287
699.7163,293
700.8265,289
701.9363,289
703.0460,283
704.1555,287
705.2647,284
706.3737,287
707.4824,285
708.5909,283
709.6992,287
710.8072,281
711.9150,284
713.0225,285
714.1298,282
715.2369,292
716.3438,287
717.4504,287
718.5568,280
719.6630,290
720.7689,284
721.8745,281
722.9800,282
724.0852,289
725.1902,288
726.2949,288
727.3994,283
728.5037,286
729.6078,282
730.7115,288
731.8151,283
732.9185,283
734.0216,282
735.1245,287
736.2271,281
737.3295,290
738.4317,287
739.5337,283
740.6354,281
741.7369,280
742.8381,281
743.9391,279
745.0399,284
746.1404,286
747.2407,282
748.3408,284
749.4407,283
750.5403,283
751.6396,288
752.7388,282
753.8378,287
754.9365,283
756.0349,285
757.1331,284
758.2311,283
759.3289,285
760.4264,288
761.5237,284
762.6207,281
763.7176,280
764.8141,282
765.9105,284
767.0067,289
768.1025,290
769.1982,289
770.2937,295
771.3889,290
772.4839,299
773.5786,313
774.6731,327
775.7674,333
776.8615,323.5
777.9553,314
779.0489,310
780.1422,300
781.2354,288
782.3282,287
783.4209,283
784.5134,289
785.6055,286
786.6975,280
787.7892,286
788.8808,284
789.9720,282
791.0631,283
792.1539,280
793.2446,288
794.3349,282
795.4250,288
796.5150,280
797.6046,283
798.6940,279
799.7833,285
800.8723,288
801.9610,279
803.0495,285
804.1378,283
805.2259,283
806.3137,287
807.4013,278
808.4887,283
809.5758,283
810.6627,282
811.7495,282
812.8359,287
813.9221,287
815.0081,283
816.0939,279
817.1794,287
818.2648,281
819.3499,289
820.4347,280
821.5193,279
822.6037,286
823.6879,283
824.7719,287
825.8555,282
826.9390,285
828.0223,282
829.1053,281
830.1881,286
831.2707,285
832.3530,285
833.4351,282
834.5170,286
835.5987,281
836.6801,283
837.7613,286
838.8423,286
839.9230,289
841.0035,281
842.0839,278
843.1639,287
844.2438,285
845.3234,286
846.4028,282
847.4819,284
848.5609,285
849.6395,284
850.7180,283
851.7963,286
852.8743,283
853.9521,280
855.0297,285
856.1070,278
857.1841,281
858.2610,279
859.3376,284
860.4141,276
861.4903,280
862.5662,281
863.6420,278
864.7175,279
865.7928,281
866.8679,282
867.9427,280
869.0174,279
870.0918,275
871.1660,281
872.2399,283
873.3136,283
874.3871,280
875.4604,278
876.5334,283
877.6062,283
878.6788,285
879.7512,279
880.8233,277
881.8952,272
882.9669,280
884.0384,279
885.1096,276
886.1807,281
887.2514,285
888.3220,276
889.3923,284
890.4625,283
891.5323,281
892.6020,282
893.6714,282
894.7407,279
895.8096,279
896.8784,282
897.9469,282
899.0153,283
900.0833,281
901.1512,286
902.2188,283
903.2863,289
904.3535,281
905.4204,290
906.4872,286
907.5537,283
908.6200,285
909.6860,282
910.7519,282
911.8175,284
912.8829,284
913.9481,285
915.0131,282
916.0778,277
917.1423,280
918.2066,282
919.2706,277
920.3345,280
921.3981,284
922.4615,286
923.5247,282
924.5876,281
925.6503,279
926.7128,287
927.7751,281
928.8372,276
929.8990,283
930.9606,279
932.0220,283
933.0831,282
934.1440,286
935.2048,280
936.2653,284
937.3256,280
938.3856,282
939.4454,279
940.5050,278
941.5644,283
942.6235,284
943.6825,284
944.7412,280
945.7997,282
946.8580,278
947.9160,289
948.9739,287
950.0315,286
951.0889,286
952.1460,292
953.2029,290
954.2597,290
955.3162,286
956.3724,289
957.4285,285
958.4843,285
959.5400,278
960.5953,281
961.6505,282
962.7054,289
963.7602,285
964.8147,280
965.8690,285
966.9230,284
967.9769,288
969.0305,284
970.0839,283
971.1371,289
972.1901,295
973.2428,294
974.2953,299
975.3477,304
976.3997,308
977.4516,303
978.5032,299
979.5546,294
980.6058,298
981.6568,287
982.7076,286
983.7581,282
984.8084,282
985.8585,287
986.9084,282
987.9581,280
989.0075,279
990.0568,280
991.1057,280
992.1545,282
993.2031,288
994.2514,287
995.2996,286
996.3475,276
997.3951,280
998.4426,285
999.4899,283
1000.54,284
1001.58,289
1002.63,289
1003.68,290
1004.72,286
1005.77,288
1006.81,278
1007.86,284
1008.91,287
1009.95,291
1011,285
1012.04,286
1013.08,290
1014.13,296
1015.17,302
1016.22,306
1017.26,313
1018.3,316
1019.35,304
1020.39,305
1021.43,301
1022.47,292
1023.52,290
1024.56,285
1025.6,287
1026.64,286
1027.68,281
1028.72,281
1029.77,282
1030.81,279
1031.85,278
1032.89,280
1033.93,283
1034.97,276
1036.01,279
1037.05,282
1038.08,276
1039.12,281
1040.16,281
1041.2,281
1042.24,276
1043.28,280
1044.31,285
1045.35,278
1046.39,279
1047.43,281
1048.46,274
1049.5,278
1050.54,277
1051.57,281
1052.61,279
1053.65,281
1054.68,280
1055.72,280
1056.75,277
1057.79,278
1058.82,278
1059.86,279
1060.89,279
1061.93,279
1062.96,284
1063.99,282
1065.03,283
1066.06,279
1067.09,282
1068.13,281
1069.16,278
1070.19,274
1071.22,278
1072.26,279
1073.29,277
1074.32,278
1075.35,278
1076.38,276
1077.41,279
1078.44,283
1079.47,286
1080.5,289
1081.53,290
1082.56,291
1083.59,294
1084.62,291
1085.65,295
1086.68,285
1087.71,289
1088.74,289
1089.77,286
1090.8,291
1091.82,289
1092.85,293
1093.88,285
1094.91,283
1095.93,288
1096.96,285
1097.99,282
1099.01,283
1100.04,291
1101.07,287
1102.09,287
1103.12,291
1104.14,292
1105.17,290
1106.19,291
1107.22,290
1108.24,292
1109.27,286
1110.29,291
1111.31,286
1112.34,284
1113.36,287
1114.39,286
1115.41,290
1116.43,287
1117.45,285
1118.48,286
1119.5,291
1120.52,285
1121.54,287
1122.56,285
1123.59,283
1124.61,282
1125.63,283
1126.65,288
1127.67,282
1128.69,283
1129.71,284
1130.73,285
1131.75,282
1132.77,285
1133.79,287
1134.81,292
1135.82,286
1136.84,289
1137.86,283
1138.88,292
1139.9,283
1140.92,287
1141.93,286
1142.95,287
1143.97,289
1144.98,290
1146,288
1147.02,290
1148.03,288
1149.05,296
1150.07,291
1151.08,293
1152.1,291
1153.11,299
1154.13,297
1155.14,291
1156.16,297
1157.17,302
1158.18,303
1159.2,311
1160.21,314
1161.23,324
1162.24,334
1163.25,330
1164.27,328
1165.28,338
1166.29,336
1167.3,340
1168.31,337
1169.33,338
1170.34,329
1171.35,320
1172.36,318
1173.37,311
1174.38,311
1175.39,308
1176.4,296
1177.41,298
1178.42,300
1179.43,300
1180.44,289
1181.45,290
1182.46,291
1183.47,287
1184.48,292
1185.49,291
1186.5,293
1187.5,287
1188.51,290
1189.52,291
1190.53,284
1191.53,292
1192.54,290
1193.55,289
1194.55,294
1195.56,288
1196.57,290
1197.57,292
1198.58,292
1199.58,290
1200.59,285
1201.59,296
1202.6,289
1203.6,294
1204.61,290
1205.61,292
1206.62,293
1207.62,289
1208.62,292
1209.63,293
1210.63,294
1211.63,289
1212.64,288
1213.64,293
1214.64,293
1215.64,298
1216.65,294
1217.65,293
1218.65,290
1219.65,293
1220.65,293
1221.65,297
1222.65,293
1223.66,296
1224.66,294
1225.66,295
1226.66,294
1227.66,296
1228.65,292
1229.65,299
1230.65,300
1231.65,301
1232.65,298
1233.65,305
1234.65,301
1235.65,305
1236.64,304
1237.64,305
1238.64,301
1239.64,301
1240.63,301
1241.63,305
1242.63,305
1243.62,304
1244.62,303
1245.62,300
1246.61,299
1247.61,297
1248.6,300
1249.6,295
1250.59,298
1251.59,297
1252.58,306
1253.58,300
1254.57,304
1255.56,307
1256.56,303
1257.55,309
1258.54,315
1259.54,310
1260.53,315
1261.52,323
1262.52,318
1263.51,330
1264.5,333
1265.49,334
1266.48,345.5
1267.48,357
1268.47,366
1269.46,375
1270.45,379
1271.44,388
1272.43,397
1273.42,402
1274.41,391
1275.4,386
1276.39,380
1277.38,368
1278.37,358
1279.36,345
1280.35,340
1281.33,332
1282.32,324
1283.31,322
1284.3,323
1285.29,321
1286.27,311
1287.26,319
1288.25,311
1289.24,312
1290.22,303
1291.21,307
1292.2,309
1293.18,311
1294.17,312
1295.15,307
1296.14,308
1297.12,306
1298.11,308
1299.1,309
1300.08,313
1301.06,305
1302.05,301
1303.03,302
1304.02,304
1305,305
1305.98,298
1306.97,299
1307.95,298
1308.93,299
1309.92,296
1310.9,303
1311.88,295
1312.86,299
1313.85,299
1314.83,304
1315.81,301
1316.79,302
1317.77,306
1318.75,302
1319.73,301
1320.71,302
1321.69,302
1322.67,306
1323.65,297
1324.63,301
1325.61,297
1326.59,296
1327.57,301
1328.55,304
1329.53,301
1330.51,305
1331.48,305
1332.46,304
1333.44,300
1334.42,306
1335.4,303
1336.37,299
1337.35,305.5
1338.33,312
1339.3,304
1340.28,304
1341.26,310
1342.23,313
1343.21,307
1344.18,310
1345.16,319
1346.13,309
1347.11,321
1348.08,313
1349.06,307
1350.03,312
1351.01,312
1351.98,305
1352.96,302
1353.93,306
1354.9,307
1355.88,307
1356.85,311
1357.82,303
1358.79,306
1359.77,310
1360.74,310
1361.71,317
1362.68,317
1363.65,314
1364.63,316
1365.6,309
1366.57,308
1367.54,306
1368.51,310
1369.48,305
1370.45,305
1371.42,299
1372.39,298
1373.36,297
1374.33,305
1375.3,302
1376.27,304
1377.24,302
1378.2,299
1379.17,299
1380.14,304
1381.11,300
1382.08,301
1383.04,299
1384.01,302
1384.98,301
1385.95,300
1386.91,304
1387.88,300
1388.85,295
1389.81,302
1390.78,306
1391.74,300
1392.71,304
1393.68,295
1394.64,302
1395.61,301
1396.57,299
1397.54,300
1398.5,295
1399.46,299
1400.43,302
1401.39,305
1402.36,301
1403.32,303
1404.28,303
1405.25,302
1406.21,305
1407.17,300
1408.13,300
1409.1,302
1410.06,302
1411.02,299
1411.98,305
1412.94,303
1413.9,304
1414.87,300
1415.83,299
1416.79,306
1417.75,303
1418.71,308
1419.67,303
1420.63,307
1421.59,300
1422.55,301
1423.51,302
1424.47,308
1425.42,305
1426.38,301
1427.34,308
1428.3,308
1429.26,303
1430.22,306
1431.17,312
1432.13,304
1433.09,303
1434.05,311
1435,308
1435.96,307
1436.92,311
1437.87,307
1438.83,302
1439.78,313
1440.74,309
1441.7,310
1442.65,309
1443.61,311
1444.56,308
1445.52,312
1446.47,304
1447.42,314
1448.38,304
1449.33,307
1450.29,309
1451.24,313
1452.19,314
1453.15,310
1454.1,313
1455.05,307
1456.01,311
1456.96,310
1457.91,309
1458.86,311
1459.81,312
1460.77,316
1461.72,318
1462.67,310
1463.62,314
1464.57,316
1465.52,317
1466.47,319
1467.42,311
1468.37,313
1469.32,319
1470.27,318
1471.22,319
1472.17,319
1473.12,316
1474.07,314
1475.02,315
1475.97,318
1476.91,317
1477.86,317
1478.81,318
1479.76,319
1480.7,318
1481.65,325
1482.6,317
1483.55,321
1484.49,321
1485.44,323
1486.39,325
1487.33,324
1488.28,324
1489.22,327
1490.17,327
1491.12,329
1492.06,321
1493.01,328
1493.95,328
1494.89,324
1495.84,321
1496.78,317
1497.73,316
1498.67,319
1499.62,310
1500.56,310
1501.5,311
1502.44,311
1503.39,310
1504.33,309
1505.27,312
1506.22,307
1507.16,309
1508.1,309
1509.04,311
1509.98,311
1510.92,310
1511.87,310
1512.81,306
1513.75,309
1514.69,314
1515.63,307
1516.57,307
1517.51,310
1518.45,302
1519.39,300
1520.33,312
1521.27,308
1522.21,308
1523.14,311
1524.08,312
1525.02,305
1525.96,310
1526.9,307
1527.84,301
1528.77,309
1529.71,310
1530.65,307
1531.59,309
1532.52,309
1533.46,306
1534.4,305
1535.33,311
1536.27,312
1537.2,303
1538.14,306
1539.08,307
1540.01,308
1540.95,310
1541.88,307
1542.82,307
1543.75,314
1544.68,304
1545.62,305
1546.55,317
1547.49,305
1548.42,307
1549.35,307
1550.29,310
1551.22,307
1552.15,311
1553.09,313
1554.02,306
1554.95,315
1555.88,306
1556.82,314
1557.75,315
1558.68,314
1559.61,314
1560.54,315
1561.47,313
1562.4,314
1563.33,310
1564.26,313
1565.19,314
1566.12,311
1567.05,319
1567.98,317
1568.91,311
1569.84,318
1570.77,319
1571.7,316
1572.63,318
1573.56,314
1574.49,312
1575.41,312
1576.34,312
1577.27,313
1578.2,316
1579.12,310
1580.05,319
1580.98,319
1581.91,312
1582.83,315
1583.76,320
1584.69,319
1585.61,316
1586.54,322
1587.46,315
1588.39,317
1589.31,314
1590.24,316
1591.16,310
1592.09,316
1593.01,313
1593.94,316
1594.86,313
1595.79,313
1596.71,314
1597.63,314

##### Extended Information
[Comments]
Sample name,G1-1
Comment,
User,Garrek Stemo
Division
Company,JASCO

[Detailed Information]
Creation date,2025/03/17 14:03

Data array type,Non-linear data array
Horizontal axis,Raman Shift [cm-1]
Vertical axis,Int.
Start,545.376 cm-1
End,1597.63 cm-1
Data points,1024

[Measurement Information]
Model Name,NRS-5100
Serial Number,C008561420

Measurement Date,2025/03/17 14:03

Exposure,120 sec
Accumulation,1
Center wavenumber,1100.04 cm-1
Z position,16550.2 um
Binning Upper,97
Binning Lower,155
Valid Channel,1 - 1024
Shift Speed,32.25 usecs
Amplitude,Normal
Readout Rate,100kHz at 16-bit
Pre-Amplifier Gain,1x
Mode,Conventional
CCD,DU420_OE,12

Laser wavelength,532.05 nm
Monochromator,Single
Grating,1800 l/mm
Slit,100 x 1000 um
Aperture,d-4000 um
Rejection filter,532.0 nm
Resolution,3.95 cm-1, 1.03 cm-1/pixel
Objective lens,MPLFLN 100 x
BS/DM,BS 30/70
Laser power,0.1 mW
Attenuator,1%(OD2)
Cosmic ray reduction,On
CCD temperature,-69.0 C
Shift,-1.45 cm-1