File: data/raman/ZIF62_crystal_1.csv
TITLE,C1
DATA TYPE,RAMAN SPECTRUM
ORIGIN,JASCO
OWNER,
DATE,24/11/05
TIME,15:23:06
SPECTROMETER/DATA SYSTEM,
LOCALE,1041
XUNITS,1/CM
YUNITS,INTENSITY
FIRSTX,  545.8049
LASTX, 1598
NPOINTS,    1024
XYDATA
545.8049,199
546.9478,199.5
548.0904,199.5
549.2328,200.5
550.3750,200
551.5169,203.5
552.6586,202.5
553.8000,202.5
554.9412,201
556.0822,202.5
557.2228,202.5
558.3633,199
559.5035,201
560.6435,199
561.7833,201
562.9227,200.5
564.0620,202.5
565.2010,200
566.3397,201
567.4783,202
568.6165,200
569.7546,203
570.8923,200
572.0299,199
573.1672,200.5
574.3043,200.5
575.4411,198.5
576.5776,201
577.7140,200.5
578.8501,202
579.9859,201
581.1215,200.5
582.2569,202
583.3920,202.5
584.5269,200.5
585.6616,199
586.7960,200.5
587.9301,201.5
589.0640,201
590.1977,199
591.3311,199
592.4643,201
593.5973,200
594.7300,200
595.8624,197.5
596.9947,199
598.1266,199
599.2584,199
600.3899,199
601.5212,199
602.6522,199.5
603.7830,198.5
604.9135,200
606.0438,200
607.1738,198.5
608.3036,199.5
609.4332,197.5
610.5626,200.5
611.6917,200.5
612.8206,199
613.9492,198.5
615.0775,197.5
616.2057,199
617.3336,199.5
618.4612,199.5
619.5886,200
620.7158,199.5
621.8428,199
622.9694,199
624.0959,201.5
625.2221,202.5
626.3481,202.5
627.4738,200
628.5994,201.5
629.7246,200
630.8496,200
631.9744,199
633.0989,203
634.2233,198.5
635.3473,200.5
636.4711,201
637.5947,201.5
638.7181,202.5
639.8412,201
640.9641,204.5
642.0867,204
643.2091,206
644.3312,203
645.4532,203
646.5748,204.5
647.6963,205.5
648.8175,203
649.9384,202.5
651.0591,204
652.1796,205.5
653.2999,203.5
654.4199,203
655.5397,201
656.6592,201
657.7785,201
658.8976,202
660.0164,204
661.1350,200.5
662.2534,202
663.3715,202
664.4893,200.5
665.6069,202
666.7244,202
667.8415,201
668.9584,199
670.0751,202.5
671.1916,202.5
672.3078,200.5
673.4238,200.5
674.5395,200
675.6550,197.5
676.7703,199
677.8853,197.5
679.0001,199.5
680.1147,198
681.2290,197.5
682.3431,198
683.4569,197
684.5706,195
685.6839,198
686.7971,196
687.9100,198.5
689.0226,196
690.1351,197
691.2473,197.5
692.3592,195.5
693.4709,197
694.5824,197
695.6937,196
696.8047,196
697.9155,196.5
699.0260,195
700.1363,197.5
701.2464,196
702.3563,195
703.4658,196
704.5752,196
705.6843,195
706.7932,198
707.9019,197.5
709.0103,197
710.1185,196
711.2265,195.5
712.3342,196
713.4417,196
714.5490,196.5
715.6560,195.5
716.7628,197
717.8693,196
718.9756,197
720.0817,198
721.1876,197
722.2932,196
723.3986,197.5
724.5037,195.5
725.6086,196
726.7133,198
727.8177,196.5
728.9220,195.5
730.0259,197.5
731.1297,194
732.2332,195.5
733.3365,194.5
734.4395,195
735.5424,194
736.6449,196
737.7473,195
738.8494,196
739.9512,195
741.0529,195
742.1543,196.5
743.2555,196.5
744.3564,195.5
745.4572,197
746.5576,195.5
747.6579,197.5
748.7579,196
749.8577,197.5
750.9572,196
752.0565,198
753.1556,195
754.2545,197
755.3531,197
756.4515,196.5
757.5496,197.5
758.6476,195
759.7452,198.5
760.8427,195.5
761.9399,197.5
763.0369,196
764.1337,198
765.2302,197
766.3265,198.5
767.4226,197.5
768.5184,198.5
769.6141,198
770.7094,200.5
771.8046,201.5
772.8995,201
773.9941,207
775.0886,210.5
776.1828,215
777.2768,211.5
778.3705,203
779.4641,201
780.5574,199
781.6505,198
782.7433,195
783.8359,197.5
784.9282,196.5
786.0204,196
787.1123,195
788.2040,197
789.2954,196.5
790.3867,197
791.4776,195.5
792.5684,196
793.6589,196
794.7492,196.5
795.8393,196.5
796.9291,197.5
798.0187,196.5
799.1081,200
800.1972,195.5
801.2861,195
802.3748,196
803.4633,196
804.5515,196.5
805.6395,196
806.7273,196.5
807.8148,195
808.9022,195
809.9892,196.5
811.0760,195.5
812.1627,198
813.2491,196
814.3353,196
815.4212,195.5
816.5069,194.5
817.5923,195
818.6776,195.5
819.7626,199.5
820.8474,195
821.9320,198
823.0163,197
824.1004,196.5
825.1843,197
826.2679,196
827.3514,198.5
828.4346,197.5
829.5175,196
830.6002,197
831.6827,196
832.7650,198
833.8471,198.5
834.9289,197
836.0105,199
837.0919,198.5
838.1730,197.5
839.2539,195.5
840.3346,196.5
841.4150,197
842.4953,198
843.5753,197
844.6550,197
845.7346,197
846.8139,197
847.8930,196
848.9719,196
850.0505,195.5
851.1289,195
852.2071,195.5
853.2850,196.5
854.3628,196.5
855.4403,197.5
856.5176,195.5
857.5946,197.5
858.6714,198
859.7480,197.5
860.8244,196
861.9005,200
862.9764,200.981
864.0521,195.011
865.1276,201.5
866.2028,199
867.2778,196
868.3527,198.5
869.4272,195
870.5015,195
871.5756,195
872.6495,195.5
873.7231,193.5
874.7966,196
875.8698,198
876.9427,193.5
878.0155,196.5
879.0881,196
880.1603,197.5
881.2324,194.5
882.3043,195
883.3759,197
884.4473,194.5
885.5185,195
886.5894,194.5
887.6602,196
888.7307,196
889.8009,196
890.8710,195.5
891.9408,195
893.0104,195.5
894.0798,196
895.1489,196.5
896.2178,197
897.2865,195.5
898.3550,197
899.4233,199
900.4913,196.5
901.5591,196
902.6266,195.5
903.6940,197
904.7612,196
905.8281,196
906.8947,198
907.9612,196
909.0274,198.5
910.0934,196.5
911.1592,197.5
912.2248,196.5
913.2901,195.5
914.3552,195.5
915.4201,194.5
916.4848,195.5
917.5493,198
918.6135,196
919.6774,195
920.7412,197
921.8047,195.5
922.8681,196.5
923.9312,195.5
924.9941,196
926.0568,197.5
927.1191,195
928.1814,197
929.2433,197
930.3051,195.5
931.3667,197.5
932.4280,196
933.4891,194.5
934.5500,196
935.6106,196
936.6711,196.5
937.7313,198.5
938.7913,196
939.8510,196
940.9105,196
941.9698,195
943.0290,196.5
944.0878,198
945.1465,196
946.2049,198
947.2631,195
948.3211,196.5
949.3789,196.5
950.4364,199
951.4938,198.5
952.5508,199
953.6077,201
954.6644,199.5
955.7208,201
956.7770,197.5
957.8330,195.5
958.8888,196.5
959.9443,198.5
960.9997,197
962.0547,196.5
963.1097,195.5
964.1643,197
965.2188,197
966.2730,196
967.3270,197.5
968.3808,197.5
969.4343,197
970.4877,200
971.5408,200.5
972.5937,198.5
973.6464,204
974.6989,205
975.7511,205.5
976.8031,206
977.8549,203.5
978.9065,201
979.9578,201
981.0090,199
982.0599,198.5
983.1106,196.5
984.1611,196.5
985.2113,197.5
986.2614,196.5
987.3112,195.5
988.3608,194.5
989.4102,195.5
990.4593,198
991.5082,196
992.5569,196.5
993.6055,194.5
994.6537,196.5
995.7018,193.5
996.7496,196
997.7973,195.5
998.8447,195.5
999.8918,197
1000.94,199.5
1001.99,199.5
1003.03,197.5
1004.08,197
1005.12,200
1006.17,197.5
1007.22,198
1008.26,197
1009.31,197.5
1010.35,195.5
1011.4,196
1012.44,196.5
1013.49,196.5
1014.53,198
1015.57,197
1016.62,199
1017.66,198
1018.7,202
1019.75,201
1020.79,203
1021.83,201
1022.87,198
1023.92,197
1024.96,196.5
1026,195
1027.04,196.5
1028.08,193.5
1029.12,195.5
1030.17,196
1031.21,195.5
1032.25,195
1033.29,197
1034.33,195.5
1035.37,195.5
1036.41,198.5
1037.45,196
1038.48,195
1039.52,195.5
1040.56,195.5
1041.6,196.5
1042.64,194.5
1043.68,195
1044.71,197.5
1045.75,196.5
1046.79,195.5
1047.83,195
1048.86,197
1049.9,195.5
1050.94,197.5
1051.97,195.5
1053.01,194.5
1054.04,195.5
1055.08,196.5
1056.12,194.5
1057.15,196
1058.19,196
1059.22,196
1060.26,197.5
1061.29,195
1062.32,197
1063.36,196
1064.39,198.5
1065.43,196
1066.46,196
1067.49,197
1068.52,196.5
1069.56,196
1070.59,195
1071.62,196
1072.65,196.5
1073.69,198.5
1074.72,197.5
1075.75,197
1076.78,197
1077.81,196
1078.84,198
1079.87,198
1080.9,200
1081.93,199.5
1082.96,197.5
1083.99,201.5
1085.02,202.5
1086.05,199.5
1087.08,200
1088.11,201.5
1089.14,197
1090.16,201.5
1091.19,199.5
1092.22,199
1093.25,199.5
1094.28,199
1095.3,198
1096.33,197.5
1097.36,198.5
1098.38,198
1099.41,198
1100.44,200
1101.46,201.5
1102.49,200
1103.51,198.5
1104.54,200
1105.56,198.5
1106.59,198.5
1107.61,199
1108.64,201
1109.66,201
1110.69,200
1111.71,200
1112.73,198.5
1113.76,200.5
1114.78,197.5
1115.8,197.5
1116.83,198
1117.85,199
1118.87,199
1119.89,199.5
1120.91,197.5
1121.94,196
1122.96,196
1123.98,196
1125,196
1126.02,196.5
1127.04,199
1128.06,198.5
1129.08,197.5
1130.1,199
1131.12,198
1132.14,198.5
1133.16,197
1134.18,197.5
1135.2,198
1136.22,199
1137.24,198
1138.26,197.5
1139.27,197
1140.29,196.5
1141.31,196
1142.33,198
1143.34,197.5
1144.36,197
1145.38,196.5
1146.39,197
1147.41,196.5
1148.43,196.5
1149.44,197
1150.46,199
1151.47,197.5
1152.49,199
1153.5,198.5
1154.52,198.5
1155.53,199.5
1156.55,199.5
1157.56,199
1158.58,198
1159.59,201.5
1160.6,200.5
1161.62,203.5
1162.63,206.5
1163.64,205
1164.66,208
1165.67,208.5
1166.68,210.5
1167.69,212
1168.71,215
1169.72,212
1170.73,214.5
1171.74,213.5
1172.75,211
1173.76,211.5
1174.77,211.5
1175.78,210
1176.8,211
1177.81,208
1178.82,205.5
1179.82,203.5
1180.83,202.5
1181.84,202
1182.85,199
1183.86,201.5
1184.87,200
1185.88,201
1186.89,199
1187.89,199.5
1188.9,201
1189.91,197.5
1190.92,199
1191.92,199.5
1192.93,198
1193.94,198.5
1194.94,196
1195.95,198.5
1196.96,198
1197.96,199
1198.97,198.5
1199.97,198.5
1200.98,199.5
1201.98,198.5
1202.99,197.5
1203.99,200
1205,198
1206,197.5
1207.01,197.5
1208.01,199.5
1209.01,200
1210.02,199.5
1211.02,197
1212.02,199
1213.03,200.5
1214.03,200.5
1215.03,199.5
1216.03,200
1217.04,198.5
1218.04,198.5
1219.04,199.5
1220.04,200
1221.04,200.5
1222.04,199
1223.04,200.5
1224.04,200.5
1225.04,199.5
1226.04,200.5
1227.04,201
1228.04,200.5
1229.04,199
1230.04,199.5
1231.04,200
1232.04,201.5
1233.04,201.5
1234.04,199.5
1235.04,201
1236.03,202.5
1237.03,203
1238.03,200.5
1239.03,200.5
1240.02,202.5
1241.02,203
1242.02,201.5
1243.01,200.5
1244.01,201.5
1245.01,200.5
1246,200
1247,200.5
1247.99,198
1248.99,200
1249.98,200
1250.98,199.5
1251.97,200.5
1252.97,201
1253.96,203.5
1254.96,201
1255.95,200.5
1256.94,200
1257.94,203
1258.93,200.5
1259.92,201
1260.92,199.5
1261.91,201
1262.9,203.5
1263.89,203.5
1264.89,204.5
1265.88,205
1266.87,206.5
1267.86,207
1268.85,212
1269.84,214.5
1270.83,217.5
1271.83,218
1272.82,225.5
1273.81,225
1274.8,230
1275.79,235.5
1276.78,235.5
1277.76,237.5
1278.75,235.5
1279.74,233
1280.73,229
1281.72,223
1282.71,222
1283.7,218.5
1284.68,216
1285.67,211.5
1286.66,214
1287.65,212
1288.63,210
1289.62,209
1290.61,208.5
1291.59,208.5
1292.58,208
1293.57,207
1294.55,207.5
1295.54,206
1296.52,208
1297.51,206
1298.49,205.5
1299.48,205.5
1300.46,207
1301.45,205.5
1302.43,200.5
1303.42,201
1304.4,201
1305.38,202.5
1306.37,202
1307.35,199.5
1308.33,202.5
1309.32,201
1310.3,200.5
1311.28,200.5
1312.26,202
1313.25,201.5
1314.23,201.5
1315.21,202
1316.19,202.5
1317.17,202.5
1318.15,202.5
1319.13,205
1320.12,202.5
1321.1,203
1322.08,202
1323.06,202
1324.04,202
1325.02,202.5
1325.99,202.5
1326.97,200.5
1327.95,199.5
1328.93,203.5
1329.91,200.5
1330.89,201.5
1331.87,201.5
1332.84,203
1333.82,201.5
1334.8,203
1335.78,203.5
1336.75,201.5
1337.73,203
1338.71,203.5
1339.69,203.5
1340.66,203.5
1341.64,205
1342.61,203.5
1343.59,204.5
1344.57,203
1345.54,207.5
1346.52,208
1347.49,206.5
1348.47,205
1349.44,206.5
1350.41,207.5
1351.39,204.5
1352.36,202.5
1353.34,202.5
1354.31,204.5
1355.28,202.5
1356.26,206
1357.23,205.5
1358.2,204.5
1359.17,202
1360.15,203.5
1361.12,203
1362.09,202.5
1363.06,202
1364.03,202
1365.01,203.5
1365.98,203
1366.95,202
1367.92,204.5
1368.89,203.5
1369.86,203
1370.83,202
1371.8,202.5
1372.77,203.5
1373.74,203
1374.71,199.5
1375.68,202
1376.65,201.5
1377.62,202
1378.58,204
1379.55,203
1380.52,200.5
1381.49,202.5
1382.46,200
1383.42,203.5
1384.39,202.5
1385.36,200.5
1386.33,203
1387.29,202.5
1388.26,201.5
1389.23,203.5
1390.19,202.5
1391.16,205
1392.12,203.5
1393.09,204.5
1394.05,204
1395.02,203.5
1395.98,202.5
1396.95,204.5
1397.91,202
1398.88,205
1399.84,204.5
1400.81,204.5
1401.77,205.5
1402.73,206
1403.7,202.5
1404.66,205
1405.62,203.5
1406.59,205.5
1407.55,203
1408.51,205
1409.47,204.5
1410.44,202
1411.4,204.5
1412.36,203
1413.32,201.5
1414.28,202.5
1415.24,201.5
1416.2,204
1417.16,203.5
1418.12,203.5
1419.08,205
1420.04,203.5
1421,204.5
1421.96,203
1422.92,205
1423.88,204.5
1424.84,201
1425.8,203
1426.76,205.5
1427.72,203
1428.68,205.5
1429.63,205.5
1430.59,205
1431.55,204
1432.51,204.5
1433.46,202
1434.42,206
1435.38,205
1436.34,206
1437.29,205.5
1438.25,203.5
1439.2,206.5
1440.16,205
1441.12,205
1442.07,204
1443.03,203.5
1443.98,204
1444.94,204
1445.89,203
1446.85,207
1447.8,204.5
1448.75,206.5
1449.71,204
1450.66,205
1451.62,206.5
1452.57,204.5
1453.52,207
1454.47,207
1455.43,205
1456.38,206
1457.33,205.5
1458.28,206
1459.24,207.5
1460.19,207.5
1461.14,205.5
1462.09,205.5
1463.04,207.5
1463.99,205
1464.94,206
1465.89,204.5
1466.85,207.5
1467.8,209.5
1468.75,208
1469.7,206.5
1470.65,207.5
1471.59,207
1472.54,206
1473.49,207
1474.44,205.5
1475.39,208
1476.34,207
1477.29,208
1478.24,208.5
1479.18,208.5
1480.13,210
1481.08,207.5
1482.03,211
1482.97,207.5
1483.92,210.5
1484.87,212
1485.81,215.5
1486.76,218.5
1487.71,217.5
1488.65,221.5
1489.6,217.5
1490.54,219.5
1491.49,219
1492.43,216.5
1493.38,214
1494.32,213.5
1495.27,210.5
1496.21,210
1497.16,210.5
1498.1,209
1499.04,205.5
1499.99,208.5
1500.93,206.5
1501.87,205.5
1502.82,208
1503.76,205.5
1504.7,204.5
1505.64,206.5
1506.59,205
1507.53,206
1508.47,204.5
1509.41,204.5
1510.35,205.5
1511.3,205
1512.24,203
1513.18,206
1514.12,204
1515.06,203.5
1516,203.5
1516.94,205
1517.88,205.5
1518.82,205
1519.76,202.5
1520.7,203.5
1521.64,204.5
1522.58,204
1523.52,203
1524.45,203.5
1525.39,204
1526.33,204.5
1527.27,203
1528.21,204.5
1529.14,203.5
1530.08,204
1531.02,205
1531.96,204
1532.89,203
1533.83,203
1534.77,204
1535.7,203.5
1536.64,204
1537.57,203
1538.51,203.5
1539.45,203
1540.38,204
1541.32,205.5
1542.25,204.5
1543.19,203
1544.12,203
1545.05,203.5
1545.99,204.5
1546.92,204
1547.86,202
1548.79,204.5
1549.72,204.5
1550.66,204
1551.59,204.5
1552.52,206
1553.46,204.5
1554.39,205
1555.32,204.5
1556.25,201.5
1557.18,203.5
1558.12,204
1559.05,204.5
1559.98,202
1560.91,204.5
1561.84,205.5
1562.77,203.5
1563.7,205
1564.63,201
1565.56,203
1566.49,203.5
1567.42,205
1568.35,204.5
1569.28,205
1570.21,205.5
1571.14,205
1572.07,202.5
1573,204
1573.93,205
1574.85,204
1575.78,204.5
1576.71,204
1577.64,204
1578.57,204
1579.49,205
1580.42,205.5
1581.35,205
1582.27,207
1583.2,208
1584.13,206
1585.05,205.5
1585.98,205
1586.9,204.5
1587.83,206
1588.76,204.5
1589.68,203.5
1590.61,203.5
1591.53,204.5
1592.46,204.5
1593.38,205.5
1594.3,203.5
1595.23,203
1596.15,204
1597.08,204
1598,204

##### Extended Information
[Comments]
Sample name,C1
Comment,
User,Garrek Stemo
Division
Company,ìﬁó«êÊí[â»äwãZèpëÂäwâ@ëÂäw

[Detailed Information]
Creation date,2024/11/05 15:23

Data array type,Non-linear data array
Horizontal axis,Raman Shift [cm-1]
Vertical axis,Int.
Start,545.805 cm-1
End,1598 cm-1
Data points,1024

[Measurement Information]
Model Name,NRS-5100
Serial Number,C008561420

Measurement Date,2024/11/05 15:23

Exposure,60 sec
Accumulation,2
Center wavenumber,1100.44 cm-1
Z position,16313.8 um
Binning Upper,97
Binning Lower,155
Valid Channel,1 - 1024
Shift Speed,16.25 usecs
Amplitude,Normal
Readout Rate,100kHz at 16-bit
Pre-Amplifier Gain,1x
Mode,Conventional
CCD,DU420_OE,12

Laser wavelength,532.05 nm
Monochromator,Single
Grating,1800 l/mm
Slit,25 x 1000 um
Aperture,d-4000 um
Rejection filter,532.0 nm
Resolution,0.99 cm-1, 1.03 cm-1/pixel
Objective lens,MPLFLN 100 x
BS/DM,BS 30/70
Laser power,0.7 mW
Attenuator,5%(OD1.3)
Cosmic ray reduction,On
CCD temperature,-69.0 C
Shift,-2.19 cm-1