File: data/raman/ZIF62_glass_2b.csv
TITLE,G1-1
DATA TYPE,RAMAN SPECTRUM
ORIGIN,JASCO
OWNER,
DATE,25/03/17
TIME,13:28:06
SPECTROMETER/DATA SYSTEM,
LOCALE,1041
XUNITS,1/CM
YUNITS,INTENSITY
FIRSTX,  545.3755
LASTX, 1597.63
NPOINTS,    1024
XYDATA
545.3755,310
546.5185,316
547.6613,307
548.8037,311
549.9459,310
551.0880,316
552.2297,317
553.3712,316
554.5125,314
555.6534,314
556.7943,308
557.9348,309
559.0750,309
560.2151,310
561.3549,307
562.4944,306
563.6337,308
564.7728,298
565.9117,308
567.0502,308
568.1886,309
569.3267,304
570.4645,306
571.6022,306
572.7395,308
573.8766,313
575.0135,305
576.1502,305
577.2866,306
578.4227,309
579.5587,308
580.6943,308
581.8298,303
582.9650,306
584.0999,303
585.2346,303
586.3691,307
587.5033,307
588.6373,305
589.7711,303
590.9045,309
592.0378,307
593.1708,308
594.3036,311
595.4362,302
596.5684,306
597.7005,299
598.8323,304
599.9639,305
601.0952,301
602.2263,298
603.3571,302
604.4877,305
605.6181,310
606.7482,306
607.8781,305
609.0078,306
610.1372,302
611.2664,307
612.3953,301
613.5239,304
614.6524,303
615.7806,300
616.9086,306
618.0363,307
619.1638,300
620.2910,299
621.4180,303
622.5448,300
623.6713,297
624.7976,305
625.9236,302
627.0494,304
628.1750,305
629.3004,299
630.4254,305
631.5503,300
632.6749,302
633.7993,304
634.9234,305
636.0473,301
637.1710,301
638.2944,303
639.4175,306
640.5405,307
641.6632,315
642.7856,305
643.9079,314
645.0298,318
646.1516,314
647.2731,314
648.3944,313
649.5154,309
650.6362,313
651.7568,308
652.8771,312
653.9971,311
655.1170,307
656.2366,307
657.3560,308
658.4751,305
659.5940,307
660.7126,301
661.8311,305
662.9492,306
664.0672,303
665.1849,308
666.3024,307
667.4196,313
668.5366,307
669.6533,308
670.7698,314
671.8861,308
673.0021,311
674.1180,305
675.2335,300
676.3489,305
677.4640,296
678.5789,299
679.6935,304
680.8079,293
681.9220,293
683.0359,292
684.1496,298
685.2631,293
686.3762,294
687.4892,294
688.6019,289
689.7144,290
690.8267,292
691.9387,293
693.0505,287
694.1620,295
695.2734,287
696.3845,291
697.4953,290
698.6060,286
699.7163,292
700.8265,288
701.9363,291
703.0460,291
704.1555,292
705.2647,285
706.3737,284
707.4824,284
708.5909,284
709.6992,284
710.8072,284
711.9150,284
713.0225,283
714.1298,288
715.2369,282
716.3438,285
717.4504,285
718.5568,287
719.6630,287
720.7689,287
721.8745,280
722.9800,285
724.0852,279
725.1902,286
726.2949,288
727.3994,285
728.5037,283
729.6078,283
730.7115,277
731.8151,276
732.9185,285
734.0216,286
735.1245,288
736.2271,283
737.3295,279
738.4317,281
739.5337,281
740.6354,277
741.7369,283
742.8381,283
743.9391,285
745.0399,280
746.1404,283
747.2407,281
748.3408,282
749.4407,281
750.5403,284
751.6396,285
752.7388,285
753.8378,289
754.9365,288
756.0349,282
757.1331,278
758.2311,282
759.3289,287
760.4264,287
761.5237,288
762.6207,282
763.7176,285
764.8141,288
765.9105,290
767.0067,286
768.1025,288
769.1982,291
770.2937,290
771.3889,287
772.4839,295
773.5786,304.5
774.6731,314
775.7674,313
776.8615,313
777.9553,305
779.0489,300
780.1422,292
781.2354,291
782.3282,290
783.4209,289
784.5134,286
785.6055,280
786.6975,287
787.7892,288
788.8808,283
789.9720,283
791.0631,284
792.1539,282
793.2446,283
794.3349,285
795.4250,277
796.5150,283
797.6046,279
798.6940,283
799.7833,278
800.8723,277
801.9610,286
803.0495,278
804.1378,285
805.2259,279
806.3137,284
807.4013,286
808.4887,283
809.5758,284
810.6627,286
811.7495,283
812.8359,285
813.9221,283
815.0081,279
816.0939,283
817.1794,283
818.2648,282
819.3499,284
820.4347,280
821.5193,283
822.6037,284
823.6879,281
824.7719,283
825.8555,283
826.9390,282
828.0223,286
829.1053,289
830.1881,279
831.2707,284
832.3530,282
833.4351,283
834.5170,287
835.5987,285
836.6801,290
837.7613,288
838.8423,283
839.9230,285
841.0035,281
842.0839,286
843.1639,282
844.2438,281
845.3234,284
846.4028,280
847.4819,289
848.5609,278
849.6395,282
850.7180,276
851.7963,281
852.8743,286
853.9521,285
855.0297,280
856.1070,280
857.1841,290
858.2610,277
859.3376,287
860.4141,281
861.4903,284
862.5662,283
863.6420,282
864.7175,276
865.7928,277
866.8679,283
867.9427,281
869.0174,282
870.0918,283
871.1660,277
872.2399,284
873.3136,281
874.3871,278
875.4604,281
876.5334,282
877.6062,276
878.6788,281
879.7512,279
880.8233,277
881.8952,279
882.9669,283
884.0384,281
885.1096,282
886.1807,277
887.2514,282
888.3220,281
889.3923,278
890.4625,279
891.5323,281
892.6020,287
893.6714,280
894.7407,287
895.8096,280
896.8784,286
897.9469,282
899.0153,280
900.0833,280
901.1512,284
902.2188,284
903.2863,287
904.3535,280
905.4204,280
906.4872,282
907.5537,284
908.6200,283
909.6860,285
910.7519,280
911.8175,286
912.8829,284
913.9481,283
915.0131,279
916.0778,287
917.1423,284
918.2066,282
919.2706,280
920.3345,283
921.3981,279
922.4615,281
923.5247,287
924.5876,279
925.6503,278
926.7128,279
927.7751,283
928.8372,282
929.8990,289
930.9606,278
932.0220,281
933.0831,280
934.1440,286
935.2048,279
936.2653,277
937.3256,285
938.3856,286
939.4454,283
940.5050,282
941.5644,279
942.6235,283
943.6825,285
944.7412,281
945.7997,282
946.8580,287
947.9160,281
948.9739,284
950.0315,286
951.0889,290
952.1460,293
953.2029,291
954.2597,291
955.3162,288
956.3724,287
957.4285,289
958.4843,287
959.5400,281
960.5953,282
961.6505,286
962.7054,284
963.7602,283
964.8147,284
965.8690,282
966.9230,281
967.9769,291
969.0305,284
970.0839,289
971.1371,289
972.1901,300
973.2428,298
974.2953,299
975.3477,303
976.3997,306
977.4516,303
978.5032,297
979.5546,298
980.6058,289
981.6568,290
982.7076,285
983.7581,285
984.8084,284
985.8585,281
986.9084,280
987.9581,280
989.0075,284
990.0568,283
991.1057,279
992.1545,278
993.2031,279
994.2514,284
995.2996,283
996.3475,281
997.3951,280
998.4426,283
999.4899,280
1000.54,285
1001.58,284
1002.63,284
1003.68,287
1004.72,283
1005.77,287
1006.81,283
1007.86,287
1008.91,283
1009.95,283
1011,281
1012.04,286
1013.08,292
1014.13,295
1015.17,298
1016.22,298
1017.26,299
1018.3,304
1019.35,294
1020.39,294
1021.43,293
1022.47,293
1023.52,287
1024.56,287
1025.6,286
1026.64,279
1027.68,281
1028.72,280
1029.77,287
1030.81,277
1031.85,281
1032.89,282
1033.93,282
1034.97,279
1036.01,279
1037.05,280
1038.08,282
1039.12,278
1040.16,280
1041.2,279
1042.24,278
1043.28,279
1044.31,280
1045.35,283
1046.39,275
1047.43,279
1048.46,280
1049.5,279
1050.54,283
1051.57,282
1052.61,280
1053.65,280
1054.68,279
1055.72,281
1056.75,280
1057.79,281
1058.82,280
1059.86,282
1060.89,279
1061.93,281
1062.96,279
1063.99,279
1065.03,279
1066.06,280
1067.09,279
1068.13,281
1069.16,280
1070.19,283
1071.22,277
1072.26,281
1073.29,279
1074.32,283
1075.35,281
1076.38,283
1077.41,288
1078.44,290
1079.47,289
1080.5,292
1081.53,291
1082.56,291
1083.59,295
1084.62,291
1085.65,293
1086.68,293
1087.71,291
1088.74,289
1089.77,288
1090.8,288
1091.82,290
1092.85,291
1093.88,285
1094.91,291
1095.93,284
1096.96,288
1097.99,287
1099.01,290
1100.04,287
1101.07,288
1102.09,292
1103.12,288
1104.14,292
1105.17,287
1106.19,289
1107.22,291
1108.24,291
1109.27,288
1110.29,285
1111.31,285
1112.34,290
1113.36,290
1114.39,288
1115.41,291
1116.43,284
1117.45,284
1118.48,285
1119.5,288
1120.52,283
1121.54,289
1122.56,285
1123.59,280
1124.61,286
1125.63,290
1126.65,284
1127.67,286
1128.69,283
1129.71,284
1130.73,283
1131.75,290
1132.77,285
1133.79,283
1134.81,288
1135.82,283
1136.84,286
1137.86,289
1138.88,285
1139.9,288
1140.92,286
1141.93,285
1142.95,287
1143.97,289
1144.98,285
1146,291
1147.02,290
1148.03,292
1149.05,294
1150.07,291
1151.08,295
1152.1,292
1153.11,288
1154.13,295
1155.14,299
1156.16,298
1157.17,306
1158.18,314
1159.2,311
1160.21,318
1161.23,321
1162.24,323
1163.25,333
1164.27,331
1165.28,340
1166.29,347
1167.3,346
1168.31,347
1169.33,352
1170.34,339
1171.35,331
1172.36,319
1173.37,316
1174.38,311
1175.39,308
1176.4,305
1177.41,295
1178.42,299
1179.43,293
1180.44,291
1181.45,294
1182.46,293
1183.47,295
1184.48,295
1185.49,292
1186.5,290
1187.5,291
1188.51,291
1189.52,294
1190.53,287
1191.53,294
1192.54,289
1193.55,291
1194.55,291
1195.56,289
1196.57,293
1197.57,292
1198.58,294
1199.58,290
1200.59,290
1201.59,291
1202.6,293
1203.6,293
1204.61,293
1205.61,296
1206.62,292
1207.62,291
1208.62,297
1209.63,293
1210.63,291
1211.63,297
1212.64,295
1213.64,292
1214.64,295
1215.64,297
1216.65,296
1217.65,294
1218.65,289
1219.65,292
1220.65,294
1221.65,299
1222.65,297
1223.66,298
1224.66,293
1225.66,299
1226.66,295
1227.66,301
1228.65,302
1229.65,294
1230.65,305
1231.65,301
1232.65,300
1233.65,308
1234.65,299
1235.65,299
1236.64,301
1237.64,302
1238.64,307
1239.64,307
1240.63,302
1241.63,303
1242.63,299
1243.62,300
1244.62,302
1245.62,303
1246.61,299
1247.61,303
1248.6,298
1249.6,301
1250.59,299
1251.59,304
1252.58,299
1253.58,307
1254.57,306
1255.56,306
1256.56,311
1257.55,311
1258.54,315
1259.54,312
1260.53,312
1261.52,320
1262.52,329
1263.51,333
1264.5,329
1265.49,336
1266.48,346.5
1267.48,357
1268.47,367
1269.46,376
1270.45,378
1271.44,383
1272.43,391
1273.42,389
1274.41,386
1275.4,383
1276.39,379
1277.38,370
1278.37,357
1279.36,344
1280.35,342
1281.33,332.5
1282.32,323
1283.31,325
1284.3,322
1285.29,319
1286.27,318
1287.26,315
1288.25,314
1289.24,313
1290.22,308
1291.21,308
1292.2,313
1293.18,308
1294.17,310
1295.15,315
1296.14,315
1297.12,307
1298.11,310
1299.1,302
1300.08,306
1301.06,302
1302.05,302
1303.03,306
1304.02,304
1305,304
1305.98,299
1306.97,307
1307.95,303
1308.93,307
1309.92,301
1310.9,308
1311.88,302
1312.86,303
1313.85,307
1314.83,307
1315.81,311
1316.79,306
1317.77,311
1318.75,304
1319.73,300
1320.71,304
1321.69,309
1322.67,309
1323.65,303
1324.63,303
1325.61,309
1326.59,302
1327.57,303
1328.55,306
1329.53,310
1330.51,313
1331.48,305
1332.46,313
1333.44,307
1334.42,308
1335.4,314
1336.37,307
1337.35,314
1338.33,313
1339.3,312
1340.28,306
1341.26,305
1342.23,318
1343.21,308
1344.18,310
1345.16,309
1346.13,313
1347.11,314
1348.08,313
1349.06,308
1350.03,307
1351.01,305
1351.98,307
1352.96,309
1353.93,311
1354.9,305
1355.88,302
1356.85,307
1357.82,305
1358.79,312
1359.77,309
1360.74,309
1361.71,312
1362.68,314
1363.65,309
1364.63,314
1365.6,316
1366.57,315
1367.54,309
1368.51,310
1369.48,308
1370.45,302
1371.42,302
1372.39,298
1373.36,299
1374.33,302
1375.3,304
1376.27,304
1377.24,297
1378.2,304
1379.17,305
1380.14,304
1381.11,298
1382.08,298
1383.04,303
1384.01,301
1384.98,303
1385.95,301
1386.91,304
1387.88,301
1388.85,297
1389.81,300
1390.78,299
1391.74,305
1392.71,299
1393.68,303
1394.64,297
1395.61,298
1396.57,300
1397.54,303
1398.5,302
1399.46,303
1400.43,301
1401.39,302
1402.36,301
1403.32,301
1404.28,304
1405.25,304
1406.21,304
1407.17,305
1408.13,304
1409.1,304
1410.06,309
1411.02,301
1411.98,304
1412.94,299
1413.9,303
1414.87,301
1415.83,300
1416.79,309
1417.75,305
1418.71,307
1419.67,299
1420.63,302
1421.59,304
1422.55,304
1423.51,305
1424.47,309
1425.42,307
1426.38,306
1427.34,301
1428.3,304
1429.26,309
1430.22,307
1431.17,304
1432.13,306
1433.09,306
1434.05,314
1435,310
1435.96,310
1436.92,305
1437.87,305
1438.83,302
1439.78,311
1440.74,308
1441.7,314
1442.65,309
1443.61,310
1444.56,315
1445.52,305
1446.47,304
1447.42,307
1448.38,310
1449.33,307
1450.29,317
1451.24,309
1452.19,313
1453.15,314
1454.1,315
1455.05,316
1456.01,314
1456.96,313
1457.91,309
1458.86,312
1459.81,319
1460.77,310
1461.72,311
1462.67,314
1463.62,314
1464.57,306
1465.52,311
1466.47,314
1467.42,313
1468.37,315
1469.32,319
1470.27,318
1471.22,320
1472.17,320
1473.12,317
1474.07,320
1475.02,317
1475.97,319
1476.91,314
1477.86,319
1478.81,317
1479.76,321
1480.7,324
1481.65,320
1482.6,324
1483.55,325
1484.49,321
1485.44,327
1486.39,330
1487.33,323
1488.28,329
1489.22,333
1490.17,329
1491.12,330
1492.06,330
1493.01,323
1493.95,322
1494.89,322
1495.84,323
1496.78,320
1497.73,322
1498.67,317
1499.62,320
1500.56,314
1501.5,311
1502.44,315
1503.39,315
1504.33,310
1505.27,309
1506.22,307
1507.16,311
1508.1,310
1509.04,312
1509.98,312
1510.92,312
1511.87,314
1512.81,315
1513.75,309
1514.69,303
1515.63,311
1516.57,312
1517.51,312
1518.45,307
1519.39,314
1520.33,303
1521.27,309
1522.21,318
1523.14,311
1524.08,310
1525.02,303
1525.96,311
1526.9,309
1527.84,309
1528.77,303
1529.71,313
1530.65,309
1531.59,312
1532.52,315
1533.46,315
1534.4,317
1535.33,312
1536.27,320
1537.2,309
1538.14,311
1539.08,312
1540.01,318
1540.95,309
1541.88,314
1542.82,321
1543.75,314
1544.68,315
1545.62,317
1546.55,316
1547.49,317
1548.42,321
1549.35,315
1550.29,321
1551.22,315
1552.15,316
1553.09,312
1554.02,316
1554.95,317
1555.88,314
1556.82,317
1557.75,315
1558.68,313
1559.61,312
1560.54,315
1561.47,315
1562.4,311
1563.33,315
1564.26,308
1565.19,317
1566.12,315
1567.05,311
1567.98,315
1568.91,312
1569.84,315
1570.77,310
1571.7,313
1572.63,315
1573.56,311
1574.49,322
1575.41,315
1576.34,313
1577.27,316
1578.2,318
1579.12,311
1580.05,313
1580.98,321
1581.91,313
1582.83,316
1583.76,315
1584.69,315
1585.61,311
1586.54,311
1587.46,309
1588.39,318
1589.31,316
1590.24,315
1591.16,319
1592.09,312
1593.01,309
1593.94,305
1594.86,315
1595.79,321
1596.71,319
1597.63,319

##### Extended Information
[Comments]
Sample name,G1-1
Comment,
User,Garrek Stemo
Division
Company,JASCO

[Detailed Information]
Creation date,2025/03/17 13:28

Data array type,Non-linear data array
Horizontal axis,Raman Shift [cm-1]
Vertical axis,Int.
Start,545.376 cm-1
End,1597.63 cm-1
Data points,1024

[Measurement Information]
Model Name,NRS-5100
Serial Number,C008561420

Measurement Date,2025/03/17 13:28

Exposure,120 sec
Accumulation,1
Center wavenumber,1100.04 cm-1
Z position,16395.5 um
Binning Upper,97
Binning Lower,155
Valid Channel,1 - 1024
Shift Speed,32.25 usecs
Amplitude,Normal
Readout Rate,100kHz at 16-bit
Pre-Amplifier Gain,1x
Mode,Conventional
CCD,DU420_OE,12

Laser wavelength,532.05 nm
Monochromator,Single
Grating,1800 l/mm
Slit,100 x 1000 um
Aperture,d-4000 um
Rejection filter,532.0 nm
Resolution,3.95 cm-1, 1.03 cm-1/pixel
Objective lens,MPLFLN 100 x
BS/DM,BS 30/70
Laser power,0.1 mW
Attenuator,1%(OD2)
Cosmic ray reduction,On
CCD temperature,-69.0 C
Shift,-1.45 cm-1