File: data/raman/ZIF62_crystal_2.csv
TITLE,C2
DATA TYPE,RAMAN SPECTRUM
ORIGIN,JASCO
OWNER,
DATE,24/12/03
TIME,18:17:53
SPECTROMETER/DATA SYSTEM,
LOCALE,1041
XUNITS,1/CM
YUNITS,INTENSITY
FIRSTX,  545.6195
LASTX, 1597.84
NPOINTS,    1024
XYDATA
545.6195,645.5
546.7624,651
547.9051,648
549.0475,658.5
550.1897,662.5
551.3317,675.5
552.4734,684
553.6149,679.5
554.7560,676
555.8970,655
557.0378,656.5
558.1783,646
559.3185,649
560.4585,656
561.5983,646.5
562.7378,649
563.8771,642
565.0161,652
566.1549,641.55
567.2935,641.55
568.4318,643.557
569.5698,649.581
570.7076,643
571.8452,642.5
572.9825,646.5
574.1196,640
575.2565,645
576.3931,649
577.5294,638.5
578.6655,639.5
579.8015,638
580.9371,644
582.0724,634
583.2076,644.5
584.3425,638
585.4772,640
586.6116,644
587.7458,631.5
588.8798,636.5
590.0135,643
591.1469,638
592.2802,632
593.4131,646
594.5458,635
595.6783,633
596.8106,634
597.9426,647
599.0744,636.5
600.2059,633
601.3372,645
602.4683,646.5
603.5991,641
604.7297,645
605.8600,638.5
606.9901,643
608.1199,639.5
609.2495,644
610.3789,643
611.5080,639
612.6369,641.5
613.7656,640.5
614.8940,637
616.0221,638.5
617.1500,638
618.2777,633
619.4052,623.5
620.5324,630.5
621.6594,629
622.7861,628.5
623.9125,622.5
625.0388,632
626.1648,630
627.2906,627.5
628.4161,629.5
629.5414,617
630.6664,633
631.7913,631
632.9158,624
634.0402,629.5
635.1642,637.5
636.2881,630.5
637.4117,641.5
638.5351,633.5
639.6583,636.5
640.7811,648
641.9038,653.5
643.0262,666.5
644.1484,659
645.2704,657.5
646.3921,648.5
647.5135,649.5
648.6348,636.5
649.7558,643.5
650.8765,646.5
651.9971,641.5
653.1173,647
654.2374,640
655.3572,638.5
656.4767,648.5
657.5961,635
658.7151,638.5
659.8340,640.5
660.9526,651.5
662.0710,659
663.1891,648.5
664.3070,651.5
665.4247,655
666.5421,657
667.6593,672
668.7762,670
669.8930,672.5
671.0095,665.5
672.1257,658.5
673.2417,649.5
674.3575,643.5
675.4730,635.5
676.5883,645
677.7034,634.5
678.8182,628.5
679.9328,618
681.0471,625.5
682.1613,612
683.2751,608
684.3887,611.5
685.5021,602.5
686.6154,601.5
687.7283,600.5
688.8409,595
689.9534,597
691.0657,593
692.1776,583.5
693.2894,585.5
694.4009,591.5
695.5122,583
696.6232,577.5
697.7341,573
698.8446,577.5
699.9550,572
701.0651,583
702.1749,574.5
703.2845,575
704.3940,570.5
705.5031,570.5
706.6121,574
707.7208,571.5
708.8292,568.5
709.9374,575
711.0454,571.5
712.1532,571
713.2607,575.5
714.3680,566
715.4750,571.5
716.5818,573
717.6884,570
718.7948,571.5
719.9009,572.5
721.0068,568.5
722.1124,570.5
723.2178,566.5
724.3230,567
725.4279,570
726.5327,567
727.6371,568
728.7414,561
729.8454,562
730.9492,569.5
732.0527,575
733.1560,566
734.2591,570
735.3619,562.5
736.4645,573
737.5669,565
738.6690,575
739.7709,566.5
740.8726,566
741.9741,564.5
743.0753,566.5
744.1762,573.5
745.2770,563.5
746.3775,572.5
747.4778,565.246
748.5778,571.5
749.6776,569
750.7772,561.5
751.8765,557
752.9756,565.5
754.0745,560.5
755.1732,558.5
756.2716,565
757.3698,562.5
758.4677,564.5
759.5654,568.5
760.6630,569.5
761.7602,569
762.8572,570
763.9540,559
765.0506,565
766.1469,570.5
767.2430,569.5
768.3389,570.5
769.4345,571.5
770.5299,594.5
771.6251,606
772.7200,633.5
773.8147,668
774.9092,676
776.0034,669.5
777.0975,625.5
778.1912,598
779.2848,579.5
780.3781,564
781.4712,570.5
782.5641,562.5
783.6567,563
784.7491,561
785.8412,564
786.9332,562
788.0249,561.5
789.1164,565
790.2076,564
791.2986,560.5
792.3894,561.5
793.4800,564
794.5703,559.5
795.6604,561.5
796.7502,569.5
797.8399,563.5
798.9293,564
800.0185,561.5
801.1074,558
802.1961,567.5
803.2846,564.5
804.3729,567
805.4609,572
806.5487,567
807.6363,562
808.7236,566
809.8107,560.5
810.8976,564
811.9843,561.5
813.0707,557.5
814.1569,563
815.2428,559
816.3286,564
817.4141,564.5
818.4993,556.5
819.5844,574
820.6692,566.5
821.7538,562.5
822.8381,568.5
823.9223,568.5
825.0062,562
826.0898,567.254
827.1733,585.5
828.2565,568.5
829.3395,569
830.4223,574.5
831.5048,569
832.5871,571.5
833.6692,578
834.7510,572
835.8326,577.5
836.9141,576.5
837.9952,576.5
839.0762,570
840.1569,572
841.2374,571
842.3176,571
843.3976,568
844.4774,570.5
845.5570,571.5
846.6364,564
847.7155,566.5
848.7944,566.5
849.8730,563
850.9515,562
852.0297,566.5
853.1077,556
854.1854,559
855.2629,556
856.3403,556
857.4174,556.5
858.4942,558
859.5708,558.5
860.6472,560
861.7234,558.5
862.7993,555.5
863.8751,553.5
864.9505,549
866.0258,553
867.1008,558.5
868.1757,556
869.2502,561
870.3246,557.5
871.3987,557
872.4727,556
873.5463,559
874.6198,557.5
875.6930,565
876.7660,550.5
877.8388,559.5
878.9113,560
879.9836,555
881.0558,554.5
882.1276,558
883.1993,561.5
884.2707,562.5
885.3419,563
886.4129,560
887.4836,557.5
888.5542,567
889.6245,559.5
890.6946,563
891.7644,565.5
892.8340,567.5
893.9034,567
894.9726,568.5
896.0416,569
897.1103,568.5
898.1788,570.5
899.2471,573.5
900.3151,567
901.3829,566
902.4506,570.5
903.5179,573
904.5851,573
905.6520,573
906.7188,584
907.7852,585
908.8515,579.5
909.9175,576.5
910.9833,580
912.0489,574.5
913.1143,578.5
914.1794,573
915.2443,573.5
916.3090,565
917.3735,571.5
918.4377,568
919.5018,569
920.5656,571.5
921.6292,573.5
922.6925,577
923.7556,571
924.8185,572
925.8812,569.5
926.9437,566
928.0059,575.5
929.0679,586
930.1298,569
931.1913,568.5
932.2527,573
933.3138,572
934.3747,575
935.4354,574.5
936.4958,574
937.5561,573
938.6161,571.5
939.6758,573.5
940.7354,575.5
941.7948,572.5
942.8539,573
943.9128,569.5
944.9715,577
946.0300,575.5
947.0882,574.5
948.1462,578
949.2040,574.5
950.2615,580
951.3189,596.5
952.3760,612
953.4329,623.5
954.4896,627.5
955.5461,620.5
956.6023,596
957.6583,582.5
958.7142,580
959.7697,570.5
960.8251,569.5
961.8802,575.5
962.9351,571
963.9898,586
965.0443,571.5
966.0985,573
967.1526,587
968.2064,582
969.2599,587
970.3134,602.5
971.3665,612.5
972.4194,643
973.4721,678.5
974.5246,711.5
975.5768,715.5
976.6289,709.5
977.6807,685.5
978.7324,650.5
979.7838,629.5
980.8349,599.5
981.8858,590
982.9366,580
983.9871,579.5
985.0374,579
986.0874,582
987.1373,578
988.1869,574.5
989.2363,575.5
990.2855,576.5
991.3344,578.5
992.3832,575
993.4317,576.5
994.4800,570.5
995.5281,577.5
996.5760,573
997.6237,576
998.6711,583.5
999.7183,588.5
1000.77,587.5
1001.81,595.5
1002.86,603
1003.9,604.5
1004.95,600
1006,590
1007.04,588
1008.09,589
1009.13,581
1010.18,589.5
1011.22,584
1012.27,590
1013.31,592
1014.36,592
1015.4,612
1016.44,628
1017.49,648
1018.53,661.5
1019.57,668.5
1020.62,640.5
1021.66,631
1022.7,614.442
1023.74,596.37
1024.79,608
1025.83,585.5
1026.87,582.5
1027.91,564
1028.95,569
1029.99,574
1031.03,572.5
1032.07,568.5
1033.11,574.5
1034.15,565.5
1035.19,573
1036.23,575
1037.27,578
1038.31,565.5
1039.35,570
1040.39,568
1041.43,572.5
1042.47,562.5
1043.5,568
1044.54,567.5
1045.58,564
1046.62,570.5
1047.65,565
1048.69,568
1049.73,575
1050.76,570
1051.8,574
1052.84,571
1053.87,568
1054.91,572
1055.94,569.5
1056.98,564
1058.01,563
1059.05,573.5
1060.08,562.5
1061.12,570
1062.15,563
1063.19,571.5
1064.22,570
1065.25,573
1066.29,568.5
1067.32,571
1068.35,570.5
1069.39,575
1070.42,573
1071.45,572
1072.48,579.5
1073.51,573.5
1074.55,577
1075.58,576.5
1076.61,573.5
1077.64,581.5
1078.67,582
1079.7,588
1080.73,598.5
1081.76,617
1082.79,632.5
1083.82,640
1084.85,638
1085.88,617
1086.91,610.5
1087.94,600.5
1088.96,594
1089.99,597.5
1091.02,587.5
1092.05,600
1093.08,594
1094.1,594.5
1095.13,592.5
1096.16,597
1097.19,600
1098.21,613.5
1099.24,604.5
1100.27,611
1101.29,605
1102.32,607
1103.34,604.5
1104.37,603.5
1105.39,604
1106.42,606
1107.44,609
1108.47,609
1109.49,602.5
1110.52,597.5
1111.54,600.5
1112.56,591
1113.59,593
1114.61,598
1115.63,590.5
1116.66,591.5
1117.68,596
1118.7,594.5
1119.72,590
1120.74,599.5
1121.77,586.5
1122.79,591
1123.81,588
1124.83,580.5
1125.85,588.5
1126.87,598.5
1127.89,587.5
1128.91,594
1129.93,596.5
1130.95,595
1131.97,596
1132.99,595
1134.01,592.5
1135.03,605
1136.05,587
1137.07,592.5
1138.09,600.5
1139.1,603.5
1140.12,594
1141.14,602
1142.16,595.5
1143.17,603
1144.19,598
1145.21,610.5
1146.22,600.5
1147.24,615
1148.26,598.5
1149.27,606.5
1150.29,611.5
1151.3,609
1152.32,612.5
1153.34,613.5
1154.35,623.5
1155.36,617
1156.38,631
1157.39,632.5
1158.41,636.5
1159.42,641.5
1160.44,648.5
1161.45,666.5
1162.46,684.5
1163.48,719
1164.49,750
1165.5,779
1166.51,819.5
1167.53,881.5
1168.54,921.5
1169.55,956.5
1170.56,936
1171.57,894
1172.58,823.5
1173.59,749
1174.61,714
1175.62,676
1176.63,664.5
1177.64,652.5
1178.65,638
1179.66,632.5
1180.67,629.5
1181.67,629.5
1182.68,624
1183.69,622.5
1184.7,629
1185.71,622
1186.72,621.5
1187.73,621
1188.73,615.5
1189.74,620
1190.75,611
1191.76,609
1192.76,611.5
1193.77,617.5
1194.78,612
1195.78,626
1196.79,624
1197.79,621.5
1198.8,616.5
1199.81,614
1200.81,615
1201.82,619.5
1202.82,614.5
1203.83,614
1204.83,612.5
1205.83,611
1206.84,619
1207.84,610
1208.85,617.5
1209.85,613
1210.85,617.5
1211.86,621
1212.86,612
1213.86,618
1214.86,620.5
1215.87,627.5
1216.87,626.5
1217.87,629.5
1218.87,620.5
1219.87,624
1220.87,623.5
1221.87,633.5
1222.88,632.5
1223.88,632.5
1224.88,634
1225.88,631
1226.88,628.5
1227.88,628
1228.88,636.5
1229.87,634
1230.87,635.5
1231.87,639.5
1232.87,651
1233.87,649
1234.87,660
1235.87,671
1236.86,663.5
1237.86,674
1238.86,670
1239.86,661.5
1240.85,659.5
1241.85,655.5
1242.85,654.5
1243.84,644
1244.84,644
1245.84,643
1246.83,645.5
1247.83,639
1248.82,641
1249.82,642
1250.81,644
1251.81,639.5
1252.8,647.5
1253.8,645
1254.79,654.5
1255.78,642.5
1256.78,656.5
1257.77,660.5
1258.76,666
1259.76,673
1260.75,676
1261.74,683.5
1262.74,684.5
1263.73,703
1264.72,700.5
1265.71,716
1266.7,740
1267.69,751.5
1268.69,788.5
1269.68,830
1270.67,875.5
1271.66,932
1272.65,998.5
1273.64,1063
1274.63,1069
1275.62,1045.5
1276.61,989.5
1277.6,910.5
1278.59,840.5
1279.58,784.5
1280.57,753.5
1281.55,743
1282.54,734
1283.53,732
1284.52,726
1285.51,715.5
1286.49,704
1287.48,706.5
1288.47,692
1289.46,693
1290.44,689
1291.43,688.5
1292.41,691
1293.4,678.5
1294.39,671.5
1295.37,684.5
1296.36,677.5
1297.34,668.5
1298.33,659.5
1299.31,658
1300.3,657.5
1301.28,656
1302.27,655
1303.25,649.5
1304.23,651
1305.22,658
1306.2,644.5
1307.19,657
1308.17,653
1309.15,654
1310.13,646
1311.12,651
1312.1,650.5
1313.08,662
1314.06,659
1315.04,669.5
1316.03,660
1317.01,652.5
1317.99,660
1318.97,650.5
1319.95,653
1320.93,652
1321.91,648.5
1322.89,646
1323.87,652
1324.85,652
1325.83,651
1326.81,646
1327.79,648.5
1328.77,659.5
1329.75,653
1330.72,656.5
1331.7,663
1332.68,667
1333.66,672.5
1334.64,681
1335.61,674
1336.59,681.5
1337.57,684.5
1338.54,687.5
1339.52,694
1340.5,682.5
1341.47,694
1342.45,694.5
1343.42,693
1344.4,696.5
1345.38,696.5
1346.35,699
1347.33,691.5
1348.3,689
1349.28,670
1350.25,675.5
1351.22,667.5
1352.2,668.5
1353.17,680.5
1354.15,667
1355.12,669.5
1356.09,670
1357.07,665.5
1358.04,675
1359.01,673.5
1359.98,680.5
1360.96,676
1361.93,679
1362.9,684
1363.87,673.5
1364.84,678
1365.81,676.5
1366.78,657
1367.75,658
1368.73,655.5
1369.7,660.5
1370.67,658.5
1371.64,661
1372.61,658
1373.58,654.5
1374.54,647.5
1375.51,652
1376.48,646.5
1377.45,644.5
1378.42,646
1379.39,654.5
1380.36,652.5
1381.32,656.5
1382.29,648
1383.26,650.5
1384.23,658
1385.19,654
1386.16,653.5
1387.13,653
1388.1,651.5
1389.06,657
1390.03,653
1390.99,654.5
1391.96,645
1392.93,649.5
1393.89,647.5
1394.86,657.5
1395.82,654.5
1396.79,660
1397.75,657.5
1398.71,659.5
1399.68,658.5
1400.64,664
1401.61,658
1402.57,666.5
1403.53,657
1404.5,665.5
1405.46,662
1406.42,661
1407.39,664.5
1408.35,659
1409.31,662.5
1410.27,670.5
1411.23,667
1412.2,669.5
1413.16,674.5
1414.12,669
1415.08,676.5
1416.04,667
1417,663
1417.96,679.5
1418.92,668.5
1419.88,671.5
1420.84,676.5
1421.8,670.5
1422.76,679
1423.72,679
1424.68,673.5
1425.64,690
1426.6,674
1427.56,676
1428.51,666
1429.47,670.5
1430.43,682.5
1431.39,674.5
1432.34,684.5
1433.3,679.5
1434.26,681
1435.22,682.5
1436.17,679
1437.13,687.5
1438.09,681
1439.04,678
1440,685
1440.95,683
1441.91,680.5
1442.86,682.5
1443.82,680.5
1444.77,687.5
1445.73,679.5
1446.68,676.5
1447.64,688.5
1448.59,681
1449.55,692
1450.5,694
1451.45,693.5
1452.41,706.5
1453.36,704
1454.31,700
1455.27,694
1456.22,697
1457.17,690
1458.12,693.5
1459.07,700.5
1460.03,697.5
1460.98,694
1461.93,706
1462.88,698.5
1463.83,703.5
1464.78,707.5
1465.73,704.5
1466.68,703.5
1467.63,716
1468.58,710.5
1469.53,718
1470.48,714
1471.43,721
1472.38,712.5
1473.33,713.5
1474.28,707
1475.23,711
1476.18,708.5
1477.13,716
1478.07,707
1479.02,710.5
1479.97,714
1480.92,720.5
1481.86,726.5
1482.81,725.5
1483.76,737.5
1484.71,743.5
1485.65,762
1486.6,771.5
1487.54,797.5
1488.49,796.5
1489.44,789.5
1490.38,776
1491.33,767.5
1492.27,755
1493.22,744
1494.16,722.5
1495.11,723.5
1496.05,717
1497,704
1497.94,704
1498.88,704.5
1499.83,710.5
1500.77,708.5
1501.71,696.5
1502.66,695.5
1503.6,710
1504.54,703.5
1505.48,689.5
1506.43,691
1507.37,691.5
1508.31,694
1509.25,695.5
1510.19,696.5
1511.14,690
1512.08,695
1513.02,698
1513.96,689.5
1514.9,689.5
1515.84,688.5
1516.78,690.5
1517.72,683
1518.66,685
1519.6,689
1520.54,697
1521.48,694
1522.42,685
1523.36,690.5
1524.29,702.5
1525.23,682
1526.17,690
1527.11,682.5
1528.05,689
1528.98,679.5
1529.92,686.5
1530.86,681
1531.8,687.5
1532.73,683
1533.67,689.5
1534.61,685.5
1535.54,697.5
1536.48,695.5
1537.41,691
1538.35,686.5
1539.29,695
1540.22,692
1541.16,696.5
1542.09,692.5
1543.03,693
1543.96,690.5
1544.89,692
1545.83,698
1546.76,688
1547.7,697
1548.63,695
1549.56,703.5
1550.5,696.5
1551.43,693
1552.36,694
1553.3,708.5
1554.23,699.5
1555.16,699.5
1556.09,692
1557.02,698.5
1557.96,689
1558.89,700.5
1559.82,705.5
1560.75,699.5
1561.68,703
1562.61,703.5
1563.54,706
1564.47,693.5
1565.4,705.5
1566.33,702.5
1567.26,702
1568.19,703.5
1569.12,704
1570.05,712.5
1570.98,703.5
1571.91,698.5
1572.84,696
1573.77,703.5
1574.7,705
1575.62,709
1576.55,699
1577.48,695
1578.41,709.5
1579.33,705.5
1580.26,705
1581.19,711
1582.11,706.5
1583.04,710
1583.97,717
1584.89,709
1585.82,708
1586.75,706.5
1587.67,704
1588.6,695
1589.52,703
1590.45,709
1591.37,698
1592.3,705.5
1593.22,709
1594.15,697.5
1595.07,701.5
1595.99,705
1596.92,710
1597.84,707.5

##### Extended Information
[Comments]
Sample name,C2
Comment,
User,Garrek Stemo
Division
Company,ìﬁó«êÊí[â»äwãZèpëÂäwâ@ëÂäw

[Detailed Information]
Creation date,2024/12/03 18:17

Data array type,Non-linear data array
Horizontal axis,Raman Shift [cm-1]
Vertical axis,Int.
Start,545.62 cm-1
End,1597.84 cm-1
Data points,1024

[Measurement Information]
Model Name,NRS-5100
Serial Number,C008561420

Measurement Date,2024/12/03 18:17

Exposure,370 sec
Accumulation,2
Center wavenumber,1100.27 cm-1
Z position,16999.3 um
Binning Upper,97
Binning Lower,155
Valid Channel,1 - 1024
Shift Speed,16.25 usecs
Amplitude,Normal
Readout Rate,100kHz at 16-bit
Pre-Amplifier Gain,1x
Mode,Conventional
CCD,DU420_OE,12

Laser wavelength,532.05 nm
Monochromator,Single
Grating,1800 l/mm
Slit,50 x 1000 um
Aperture,d-4000 um
Rejection filter,532.0 nm
Resolution,1.97 cm-1, 1.03 cm-1/pixel
Objective lens,MPLFLN 100 x
BS/DM,BS 30/70
Laser power,0.1 mW
Attenuator,1%(OD2)
Cosmic ray reduction,On
CCD temperature,-69.0 C
Shift,-3.20 cm-1